time,acc_x,acc_y,acc_z,gyro_x,gyro_y,gyro_z,temp
0.0, 3.906339e-05, 0.01890869, 0.9963727, 0.004975557, 0.06392682, 0.06068292, 20.78824
0.019945, 0.000283204, 0.01840881, 1.005225, 0.03546345, 0.2468537, -0.0002926588, 20.69412
0.03993, -0.007041015, 0.01694946, 1.002746, 0.03546345, 0.06392682, 0.09117073, 20.69412
0.059933, 0.000283204, 0.01841186, 1.000529, -0.05599999, 0.1249025, -0.1222439, 20.74118
0.079936, -0.006064452, 0.01817993, 1.002766, -0.1779512, 0.09441471, -0.03078049, 20.69412
0.099924, -0.004599608, 0.01792725, 1.001285, 0.03546345, -0.05802441, -0.06126827, 20.69412
0.119928, 0.004677735, 0.006708984, 0.9964033, 0.3098537, -0.05802441, -0.03078049, 20.69412
0.139929, -0.008261718, 0.01279358, 1.00689, 0.03546345, 0.03343904, 0.03019512, 20.69412
0.159928, -0.007041015, 0.02792908, 0.9966627, -0.02551222, 0.002951264, 0.03019512, 20.78824
0.179928, -0.0002050772, 0.01769043, 1.005871, -0.1169757, 0.06392682, -0.1222439, 20.74118
0.200166, 0.00272461, 0.009890136, 0.9959277, 0.004975557, 0.09441471, -0.06126827, 20.69412
0.219943, 0.00248047, 0.01451843, 1.000557, -0.05599999, 0.03343904, 0.03019512, 20.64706
0.23993, -0.002890624, 0.01718628, 0.9915472, 0.1269268, 0.06392682, 0.06068292, 20.64706
0.259933, 0.001748048, 0.01817078, 1.002002, 0.004975557, 0.09441471, 0.06068292, 20.64706
0.279933, 0.001503907, 0.01718628, 1.003237, 0.06595123, 0.1858781, -0.06126827, 20.74118
0.299929, 0.004433595, 0.01085449, 1.002756, 0.06595123, -0.05802441, -0.09175611, 20.69412
0.319929, -0.001669921, 0.01743042, 0.9985942, 0.06595123, 0.03343904, 0.1521463, 20.74118
0.339933, -0.009726562, 0.01548645, 0.9988727, 0.004975557, 0.09441471, -0.0002926588, 20.74118
0.359928, -0.0006933585, 0.01865417, 1.008357, 0.1269268, -0.02753651, -0.09175611, 20.69412
0.379931, -0.002158202, 0.01938965, 0.9966754, 0.1269268, 0.521244, -0.0002926588, 20.69412
0.399969, -0.002646483, 0.01499329, 1.002701, -0.02551222, 0.03343904, -0.1222439, 20.69412
0.419938, -0.002158202, 0.01938843, 0.9954012, 0.03546345, 0.03343904, -0.06126827, 20.69412
0.439934, 3.906339e-05, 0.01719727, 1.006646, 0.096439, -0.02753651, -0.06126827, 20.69412
0.45993, 0.006142579, 0.01497742, 0.9930184, 0.06595123, 0.09441471, 0.09117073, 20.64706
0.47993, -0.0002050772, 0.02329224, 0.9914847, -0.02551222, -0.08851218, -0.03078049, 20.74118
0.499928, 0.003457032, 0.009881591, 0.9944489, -0.05599999, 0.1553903, 0.03019512, 20.83529
0.519927, -0.001669921, 0.01792725, 0.9998111, -0.08648777, 0.03343904, -0.03078049, 20.74118
0.53993, 0.0007714853, 0.02278809, 1.005642, 0.1574147, 0.09441471, 0.06068292, 20.64706
0.559934, -0.003378905, 0.01644897, 1.0042, -0.02551222, 0.1858781, 0.3045854, 20.74118
0.579928, -0.003134765, 0.01622925, 1.002283, 0.2183902, 0.09441471, 0.09117073, 20.74118
0.599968, 0.001015626, 0.01182434, 0.9986171, 0.06595123, 0.2468537, 0.06068292, 20.74118
0.619939, 0.000283204, 0.01840698, 1.006591, 0.06595123, 0.06392682, -0.1527317, 20.88235
0.639928, 0.002236329, 0.01378296, 0.9998199, -0.02551222, 0.09441471, -0.09175611, 20.69412
0.659935, 0.001748048, 0.02425903, 0.9824427, -0.05599999, 0.09441471, -0.03078049, 20.69412
0.679932, -0.003867187, 0.01428528, 1.008572, 0.1574147, 0.03343904, 0.03019512, 20.69412
0.699924, 0.005410157, 0.01402649, 0.9988447, -0.02551222, -0.05802441, 0.03019512, 20.78824
0.719931, 0.001748048, 0.01866333, 0.9966499, 0.004975557, 0.1858781, 0.1826341, 20.74118
0.739929, -0.008017577, 0.02645324, 0.9983691, -0.05599999, 0.2163659, 0.06068292, 20.69412
0.759932, -0.0002050772, 0.01915039, 0.9976112, -0.1169757, 0.002951264, -0.0002926588, 20.64706
0.779931, -0.002158202, 0.01670898, 0.9893512, 0.06595123, -0.119, -0.1222439, 20.83529
0.8000771, 0.002968751, 0.01646179, 1.000049, 0.004975557, -0.05802441, -0.0002926588, 20.78824
0.819939, -0.0002050772, 0.01305054, 1.00587, -0.1169757, 0.1858781, 0.03019512, 20.74118
0.839929, 0.005898438, 0.01986572, 1.00035, -0.02551222, -0.119, -0.09175611, 20.74118
0.859932, 0.004921876, 0.01962341, 1.004946, 0.004975557, 0.2163659, -0.03078049, 20.69412
0.879929, -0.0009374991, 0.01889343, 1.002991, -0.05599999, -0.1494877, 0.03019512, 20.78824
0.899934, 0.0007714853, 0.01598145, 1.00566, -0.02551222, 0.1249025, -0.03078049, 20.69412
0.919928, 3.906339e-05, 0.01011841, 1.01036, -0.208439, -0.05802441, -0.0002926588, 20.78824
0.939934, -0.004599608, 0.008406372, 1.002458, 0.03546345, 0.03343904, 0.1826341, 20.69412
0.95993, -0.0006933585, 0.01572449, 0.9956389, -0.1779512, 0.03343904, 0.03019512, 20.78824
0.97993, 0.003212892, 0.01401733, 0.9903049, -0.05599999, -0.02753651, -0.1222439, 20.78824
1.000142, -0.0006933585, 0.02158936, 0.9976253, 0.004975557, -0.05802441, 0.2131219, 20.78824
1.019947, -0.006308593, 0.01304016, 0.9993419, 0.03546345, -0.2104634, -0.1222439, 20.74118
1.039929, 0.0005273447, 0.01766968, 0.9961375, -0.02551222, 0.09441471, 0.06068292, 20.74118
1.059925, 0.000283204, 0.01328125, 1.000085, 0.004975557, -0.05802441, 0.1216585, 20.74118
1.079931, 0.003945313, 0.02256836, 1.001782, -0.02551222, 0.03343904, 0.1216585, 20.74118
1.099925, 0.002236329, 0.01670532, 1.010307, 0.06595123, 0.3992927, 0.06068292, 20.83529
1.119933, -0.003134765, 0.0184137, 0.9939249, 0.004975557, 0.03343904, 0.09117073, 20.74118
1.139933, 0.003701173, 0.01791809, 0.999783, 0.03546345, 0.1858781, 0.06068292, 20.78824
1.159933, -0.001914062, 0.01866699, 1.003944, -0.02551222, 0.002951264, 0.06068292, 20.69412
1.17993, -0.004111327, 0.01768249, 1.014697, -0.08648777, 0.06392682, 0.1216585, 20.69412
1.204151, 0.000283204, 0.01573242, 1.010575, -0.05599999, 0.3383171, 0.09117073, 20.83529
1.219947, 0.005654298, 0.01694824, 1.008584, 0.096439, 0.06392682, 0.06068292, 20.64706
1.239933, 0.0007714853, 0.01108521, 1.002274, -0.05599999, -0.1494877, 0.09117073, 20.78824
1.25993, -0.004111327, 0.01402344, 1.003209, -0.2389269, 0.06392682, 0.1521463, 20.78824
1.279927, 0.001503907, 0.0120752, 1.000537, -0.02551222, 0.1249025, 0.06068292, 20.74118
1.299928, 3.906339e-05, 0.01745056, 1.000064, 0.03546345, 0.03343904, 0.03019512, 20.78824
1.319926, 0.001503907, 0.009388427, 1.000069, -0.1169757, 0.2163659, 0.03019512, 20.74118
1.339934, -0.00118164, 0.01573547, 0.9963918, -0.08648777, 0.1249025, -0.0002926588, 20.74118
1.359925, -0.004843749, 0.01549011, 1.011246, -0.05599999, 0.1858781, -0.0002926588, 20.78824
1.379932, 0.00248047, 0.0118219, 0.9939338, 0.004975557, -0.05802441, 0.1521463, 20.69412
1.404392, -0.007285155, 0.01549377, 0.9997931, -0.05599999, 0.03343904, -0.03078049, 20.64706
1.41995, -0.00533203, 0.01547729, 0.9968979, -0.02551222, 0.1553903, 0.03019512, 20.69412
1.43993, -0.002402343, 0.01987671, 0.9985648, -0.08648777, 0.06392682, 0.2131219, 20.78824
1.45993, -0.0009374991, 0.01500671, 1.008573, 0.004975557, 0.09441471, 0.3045854, 20.69412
1.479932, -0.001914062, 0.01450378, 1.002246, -0.1169757, 0.03343904, -0.0002926588, 20.78824
1.499928, 0.000283204, 0.01353577, 1.003983, 0.004975557, 0.2773415, 0.03019512, 20.64706
1.51993, -0.003867187, 0.01720886, 0.997624, -0.1169757, 0.1249025, 0.1521463, 20.74118
1.539929, -0.003134765, 0.02402161, 1.002696, 0.03546345, 0.06392682, 0.09117073, 20.78824
1.559934, 0.002236329, 0.008672485, 1.005656, -0.1474634, 0.1553903, 0.06068292, 20.69412
1.579928, -0.00118164, 0.0166925, 0.9983411, 0.03546345, 0.002951264, -0.06126827, 20.69412
1.604564, -0.008017577, 0.01475586, 1.002519, 0.06595123, 0.1858781, 0.03019512, 20.74118
1.619939, -0.009482421, 0.02573303, 1.00418, 0.03546345, 0.03343904, -0.06126827, 20.78824
1.639935, 0.0007714853, 0.02158264, 0.9956759, 0.096439, 0.002951264, -0.1527317, 20.74118
1.659936, -0.008749999, 0.01011536, 1.003202, -0.1169757, 0.002951264, 0.1216585, 20.69412
1.67993, -0.003867187, 0.01865234, 0.9929904, 0.03546345, 0.03343904, -0.09175611, 20.78824
1.69993, 3.906339e-05, 0.01401978, 0.9968788, -0.05599999, 0.03343904, 0.03019512, 20.78824
1.719933, 0.00272461, 0.01768738, 1.002741, 0.1269268, -0.119, 0.1216585, 20.69412
1.739928, -0.006796874, 0.0152417, 1.005163, -0.05599999, 0.03343904, 0.09117073, 20.78824
1.759934, 0.002236329, 0.0169342, 1.00254, 0.03546345, 0.1858781, 0.1826341, 20.74118
1.779929, -0.0002050772, 0.01452209, 1.007091, -0.1169757, -0.2409512, 0.03019512, 20.74118
1.804752, -0.0004492178, 0.02012268, 0.999581, 0.06595123, 0.002951264, 0.09117073, 20.74118
1.819943, -0.002402343, 0.01670898, 1.006863, 0.1574147, 0.06392682, 0.1826341, 20.74118
1.839939, -0.004599608, 0.01304138, 1.001307, 0.06595123, -0.08851218, -0.09175611, 20.83529
1.859932, 0.001748048, 0.01842102, 0.9988281, 0.1269268, 0.09441471, -0.06126827, 20.78824
1.879934, 0.004189454, 0.01915344, 0.9961668, 0.004975557, 0.002951264, -0.1222439, 20.64706
1.899927, -0.003867187, 0.02158691, 1.00028, -0.02551222, 0.1553903, -0.06126827, 20.78824
1.919931, 0.00272461, 0.01963257, 1.004213, -0.05599999, -0.05802441, -0.03078049, 20.78824
1.939932, 0.0005273447, 0.01598633, 0.996379, -0.08648777, 0.002951264, -0.06126827, 20.78824
1.959932, -0.00118164, 0.01498901, 0.9973849, -0.02551222, 0.03343904, 0.03019512, 20.78824
1.979936, 0.001015626, 0.01792786, 1.001534, 0.096439, 0.03343904, -0.03078049, 20.69412
2.004861, -0.006796874, 0.01938355, 1.005693, 0.1574147, 0.2468537, 0.2131219, 20.74118
2.019943, -0.002890624, 0.01498901, 0.9907421, 0.004975557, 0.09441471, -0.03078049, 20.78824
2.039932, -0.001914062, 0.01206116, 1.010571, 0.03546345, -0.08851218, -0.03078049, 20.74118
2.059933, 0.001503907, 0.01842468, 0.9907741, 0.096439, -0.05802441, -0.0002926588, 20.69412
2.079932, 0.0007714853, 0.02207825, 1.003214, -0.08648777, 0.2468537, -0.1222439, 20.69412
2.099927, -0.005576171, 0.0123114, 1.006901, -0.208439, 0.002951264, -0.03078049, 20.74118
2.119928, 3.906339e-05, 0.01403198, 0.9925378, 0.06595123, 0.06392682, 0.1216585, 20.64706
2.139929, -0.004355468, 0.01549255, 0.99025, -0.1474634, -0.05802441, 0.09117073, 20.74118
2.159935, -0.006552733, 0.01767517, 1.002773, -0.02551222, 0.09441471, -0.09175611, 20.74118
2.17993, 0.003457032, 0.01889832, 0.9988905, 0.1879025, 0.002951264, 0.06068292, 20.69412
2.204999, 0.001503907, 0.01451355, 1.001267, 0.096439, -0.05802441, -0.06126827, 20.69412
2.219943, 0.0007714853, 0.01450867, 1.002996, -0.02551222, 0.2773415, -0.0002926588, 20.78824
2.239933, -0.0004492178, 0.01598145, 1.000086, -0.08648777, 0.03343904, -0.1832195, 20.78824
2.259929, -0.002890624, 0.01573364, 0.9980995, -0.05599999, -0.02753651, 0.1521463, 20.74118
2.279934, 0.001992188, 0.0184021, 0.9973391, 0.1269268, 0.3992927, 0.1521463, 20.69412
2.299928, 3.906339e-05, 0.01597595, 0.9968814, -0.05599999, -0.1494877, -0.03078049, 20.74118
2.319932, -0.00118164, 0.01719788, 1.002236, 0.06595123, -0.1494877, 0.03019512, 20.74118
2.339935, -0.0002050772, 0.01743652, 0.999071, 0.2793658, 0.06392682, 0.1521463, 20.83529
2.359931, -0.005576171, 0.01402466, 1.003951, 0.06595123, 0.002951264, -0.0002926588, 20.83529
2.37993, -0.0009374991, 0.01500732, 1.00368, 0.1574147, -0.1799756, -0.03078049, 20.74118
2.405205, -0.003867187, 0.01353088, 1.005949, 0.1269268, 0.1553903, 0.09117073, 20.83529
2.419945, 0.00248047, 0.01866699, 0.9915243, -0.05599999, 0.002951264, -0.1527317, 20.69412
2.43993, -0.002646483, 0.01767456, 1.009301, -0.02551222, 0.06392682, 0.1826341, 20.69412
2.459929, 0.002236329, 0.01621094, 1.001525, 0.096439, 0.1858781, 0.09117073, 20.69412
2.479931, 0.001748048, 0.008904419, 1.00304, -0.1169757, 0.1553903, -0.09175611, 20.78824
2.499928, -0.0006933585, 0.01914673, 0.9986221, 0.2183902, 0.002951264, 0.1216585, 20.78824
2.519934, -0.003134765, 0.01329101, 1.001, 0.03546345, 0.09441471, 0.1521463, 20.78824
2.539929, -0.00118164, 0.01939148, 0.9949537, -0.02551222, -0.05802441, 0.06068292, 20.78824
2.559928, 0.004189454, 0.01549683, 1.00663, 0.004975557, 0.002951264, 0.09117073, 20.83529
2.579925, 0.002236329, 0.01841125, 0.9978821, 0.004975557, 0.1553903, 0.09117073, 20.74118
2.605461, -0.002402343, 0.01206604, 1.002733, 0.096439, 0.06392682, 0.03019512, 20.74118
2.61994, 0.003701173, 0.01914673, 0.9998187, 0.06595123, 0.1553903, -0.03078049, 20.69412
2.63993, 0.001992188, 0.01426331, 0.993288, 0.096439, 0.09441471, 0.09117073, 20.78824
2.659931, 0.0005273447, 0.01645508, 1.00298, -0.05599999, 0.1553903, -0.0002926588, 20.74118
2.679934, -0.004843749, 0.01792542, 1.006641, 0.06595123, -0.02753651, 0.3350732, 20.74118
2.699926, -0.006796874, 0.01548767, 0.9954471, 0.1879025, 0.09441471, 0.2740976, 20.74118
2.719928, 0.003457032, 0.0167041, 1.00587, -0.02551222, -0.1799756, -0.03078049, 20.78824
2.739934, 0.00272461, 0.02109802, 1.000549, 0.2183902, 0.002951264, -0.06126827, 20.69412
2.759927, -0.001669921, 0.01818542, 1.000013, -0.05599999, 0.09441471, 0.09117073, 20.78824
2.779933, -0.002890624, 0.01572021, 1.013213, -0.08648777, 0.1553903, 0.03019512, 20.78824
2.805616, -0.003378905, 0.01767883, 1.00271, -0.1169757, 0.03343904, -0.1527317, 20.83529
2.819946, 0.000283204, 0.0152478, 0.9988523, -0.02551222, 0.002951264, -0.06126827, 20.78824
2.839933, -0.0009374991, 0.01157898, 1.005453, -0.02551222, 0.09441471, 0.09117073, 20.74118
2.859932, -0.003623046, 0.01645752, 1.005664, 0.03546345, 0.2468537, 0.09117073, 20.64706
2.879926, -0.004843749, 0.01621155, 0.9992998, -0.2389269, 0.09441471, 0.1521463, 20.83529
2.89993, 0.002236329, 0.01939026, 0.9934825, 0.096439, 0.09441471, -0.0002926588, 20.83529
2.919931, -0.0009374991, 0.01450317, 0.9963931, 0.004975557, -0.08851218, -0.09175611, 20.64706
2.939932, 3.906339e-05, 0.01793213, 0.9927131, 0.03546345, 0.1553903, -0.1527317, 20.74118
2.959928, 0.003212892, 0.01574097, 0.9971306, 0.096439, 0.2468537, -0.0002926588, 20.78824
2.979932, -0.003623046, 0.01426147, 1.003235, -0.1474634, -0.08851218, -0.0002926588, 20.69412
3.005749, -0.0009374991, 0.01524658, 0.9949741, 0.004975557, 0.002951264, -0.03078049, 20.78824
3.019942, 0.001015626, 0.01401428, 0.9993521, 0.096439, -0.02753651, -0.1222439, 20.78824
3.039931, 0.000283204, 0.01427307, 1.000839, 0.03546345, 0.2163659, 0.2131219, 20.88235
3.059929, -0.002890624, 0.01792114, 0.9961807, 0.1879025, -0.119, -0.0002926588, 20.69412
3.07993, -0.00118164, 0.02500427, 0.9946892, -0.08648777, -0.05802441, 0.1521463, 20.78824
3.099928, -0.004843749, 0.01695862, 1.003216, 0.1269268, -0.08851218, -0.06126827, 20.74118
3.11993, 0.001992188, 0.01450989, 0.9956709, -0.08648777, 0.09441471, -0.03078049, 20.78824
3.139932, -0.0004492178, 0.01499329, 1.005181, 0.1269268, -0.05802441, 0.1216585, 20.78824
3.159932, -0.001914062, 0.01670349, 1.005195, -0.3608781, -0.05802441, -0.06126827, 20.64706
3.179927, -0.0009374991, 0.01280334, 1.009363, -0.1779512, 0.09441471, 0.1521463, 20.74118
3.205919, 0.004677735, 0.01572632, 1.001236, 0.06595123, 0.03343904, 0.1521463, 20.64706
3.219946, -0.0009374991, 0.01329163, 1.006196, -0.05599999, 0.06392682, 0.09117073, 20.78824
3.239928, -0.00508789, 0.01574157, 0.9985968, -0.08648777, 0.03343904, 0.03019512, 20.78824
3.259934, -0.002890624, 0.01133667, 1.001234, -0.05599999, -0.05802441, 0.09117073, 20.83529
3.279933, -0.001669921, 0.01499939, 0.99496, -0.1779512, 0.002951264, 0.09117073, 20.78824
3.299929, 0.002236329, 0.01498962, 1.00131, 0.06595123, 0.03343904, 0.09117073, 20.78824
3.319931, 0.001748048, 0.01330383, 1.001551, 0.03546345, -0.02753651, -0.09175611, 20.78824
3.339929, -0.003867187, 0.01426025, 1.010039, 0.06595123, 0.2163659, -0.1222439, 20.74118
3.359934, 0.001015626, 0.01815857, 0.9934672, 0.1574147, 0.03343904, 0.09117073, 20.78824
3.379927, 0.001503907, 0.01987976, 0.9973811, -0.08648777, -0.1494877, 0.2740976, 20.74118
3.406052, 0.0005273447, 0.01598938, 1.002674, -0.1169757, -0.02753651, -0.0002926588, 20.78824
3.419972, 0.000283204, 0.01622864, 0.9995771, 0.2793658, -0.1799756, -0.1222439, 20.74118
3.439939, 0.0007714853, 0.01450928, 0.9973824, 0.03546345, 0.06392682, 0.03019512, 20.88235
3.459933, 0.001503907, 0.01524414, 1.009835, -0.02551222, -0.02753651, -0.1832195, 20.69412
3.479928, 0.005898438, 0.01964416, 1.007855, -0.1169757, -0.08851218, -0.0002926588, 20.83529
3.49993, 0.001259767, 0.01646179, 1.001993, -0.02551222, -0.02753651, 0.1521463, 20.78824
3.51993, -0.005820312, 0.0137738, 1.003954, -0.02551222, 0.06392682, 0.1826341, 20.88235
3.539932, 0.0005273447, 0.01865234, 1.001776, -0.08648777, 0.3078293, -0.2137073, 20.69412
3.559933, 0.003457032, 0.01548035, 1.000067, 0.096439, 0.1858781, -0.06126827, 20.78824
3.579933, -0.003623046, 0.01744873, 1.006634, 0.1269268, 0.2468537, 0.03019512, 20.74118
3.606309, 0.0007714853, 0.01109558, 1.005188, -0.08648777, 0.1858781, 0.03019512, 20.74118
3.620224, -0.003134765, 0.01182617, 1.004707, -0.08648777, 0.1858781, -0.03078049, 20.83529
3.639936, 0.002968751, 0.01744934, 0.9934417, -0.05599999, 0.1249025, 0.1826341, 20.83529
3.659937, -0.002158202, 0.01989197, 0.9978554, 0.004975557, -0.05802441, 0.1216585, 20.74118
3.679932, 0.000283204, 0.01500061, 1.000777, 0.06595123, -0.08851218, 0.09117073, 20.74118
3.699931, -0.00118164, 0.01891174, 0.9997957, 0.03546345, 0.002951264, -0.03078049, 20.78824
3.71993, 3.906339e-05, 0.01621887, 1.001295, -0.2389269, -0.05802441, -0.0002926588, 20.74118
3.739926, -0.0006933585, 0.01940368, 0.994693, 0.03546345, 0.06392682, -0.0002926588, 20.78824
3.759929, -0.00533203, 0.02036987, 0.9969323, 0.06595123, 0.09441471, 0.1521463, 20.83529
3.77993, -0.007773437, 0.02061218, 1.005852, 0.06595123, 0.03343904, 0.09117073, 20.69412
3.806415, -0.006064452, 0.02062195, 1.007421, -0.1169757, 0.06392682, 0.09117073, 20.78824
3.820311, -0.004111327, 0.00866455, 1.007162, -0.08648777, 0.06392682, 0.06068292, 20.78824
3.839936, 0.003457032, 0.01841431, 0.9959379, 0.06595123, 0.09441471, -0.06126827, 20.74118
3.859932, 0.002968751, 0.01426269, 1.00344, 0.004975557, -0.119, 0.03019512, 20.74118
3.879932, -0.003134765, 0.01645935, 1.00912, -0.1779512, 0.1553903, 0.09117073, 20.74118
3.899931, -0.007285155, 0.01499206, 1.00765, 0.004975557, 0.1553903, 0.09117073, 20.83529
3.919928, -0.003134765, 0.01840515, 1.002457, 0.004975557, 0.1553903, -0.03078049, 20.74118
3.93993, 3.906339e-05, 0.01841736, 1.002756, -0.1474634, -0.05802441, -0.03078049, 20.64706
3.959934, -0.007041015, 0.0184198, 1.001019, 0.2793658, -0.119, -0.03078049, 20.74118
3.979928, 0.001748048, 0.01425049, 1.000049, 0.03546345, 0.1553903, 0.1826341, 20.83529
4.006563, -0.004111327, 0.01646851, 0.998809, -0.208439, -0.02753651, -0.09175611, 20.74118
4.020484, -0.00533203, 0.01232361, 1.006164, -0.05599999, 0.1249025, -0.06126827, 20.78824
4.039932, 0.0007714853, 0.01499146, 1.005655, 0.004975557, 0.06392682, 0.06068292, 20.78824
4.059932, -0.004111327, 0.01669373, 0.9968776, -0.2694147, -0.1799756, 0.09117073, 20.78824
4.079932, -0.0002050772, 0.01864685, 0.9956696, 0.1574147, 0.2163659, 0.06068292, 20.78824
4.099928, -0.003867187, 0.01743408, 0.9968954, 0.2183902, -0.119, 0.1521463, 20.78824
4.119933, -0.0009374991, 0.01181519, 0.9985866, -0.2389269, 0.2163659, 0.1216585, 20.88235
4.139929, -0.00533203, 0.01964783, 1.001971, -0.1169757, -0.02753651, 0.06068292, 20.69412
4.159926, -0.0004492178, 0.01938599, 1.004733, 0.004975557, 0.09441471, 0.1216585, 20.83529
4.179929, -0.006552733, 0.01401672, 1.002036, 0.06595123, -0.2409512, -0.06126827, 20.69412
4.20675, 0.000283204, 0.01718017, 1.000042, 0.03546345, 0.002951264, 0.1216585, 20.83529
4.220615, 0.001015626, 0.02303955, 1.000058, -0.02551222, -0.119, 0.2131219, 20.74118
4.239935, -0.00508789, 0.0154956, 1.00371, 0.096439, 0.2163659, 0.09117073, 20.69412
4.259932, -0.00899414, 0.02133789, 1.004203, 0.1574147, -0.05802441, 0.03019512, 20.78824
4.27993, 3.906339e-05, 0.01694763, 1.005619, -0.208439, -0.2409512, 0.06068292, 20.69412
4.299931, 0.006875001, 0.01816894, 1.001531, -0.02551222, -0.2409512, 0.09117073, 20.69412
4.319934, -0.001914062, 0.01450317, 1.005225, 0.03546345, 0.1249025, 0.2740976, 20.88235
4.339934, -0.00508789, 0.01793579, 0.9939479, -0.1779512, 0.03343904, 0.1826341, 20.78824
4.359933, -0.00142578, 0.02549133, 1.002015, 0.004975557, 0.002951264, 0.2436098, 20.74118
4.379928, -0.00142578, 0.01549866, 1.008367, -0.05599999, 0.1858781, -0.03078049, 20.83529
4.406974, -0.002402343, 0.01427734, 1.00958, 0.004975557, -0.02753651, 0.09117073, 20.83529
4.420913, -0.00508789, 0.01622253, 0.99585, -0.08648777, 0.03343904, -0.0002926588, 20.83529
4.439936, 0.001015626, 0.018172, 0.9910131, -0.1169757, -0.08851218, -0.0002926588, 20.69412
4.459927, 0.001015626, 0.0135321, 0.9986094, -0.2694147, 0.03343904, -0.0002926588, 20.78824
4.47993, 0.000283204, 0.01840637, 0.995161, 0.03546345, 0.03343904, -0.03078049, 20.83529
4.499926, -0.005820312, 0.01182251, 0.9990837, -0.05599999, 0.06392682, -0.0002926588, 20.88235
4.519933, -0.0009374991, 0.00939392, 1.003767, 0.06595123, 0.2163659, 0.09117073, 20.74118
4.539928, 0.000283204, 0.01718872, 1.000819, 0.03546345, 0.2468537, -0.0002926588, 20.78824
4.559935, -0.001669921, 0.01304565, 1.00057, -0.05599999, 0.002951264, 0.06068292, 20.88235
4.579929, 3.906339e-05, 0.01598145, 1.010965, -0.05599999, 0.06392682, 0.09117073, 20.69412
4.607119, -0.003867187, 0.02353455, 0.9985584, 0.004975557, 0.1553903, 0.03019512, 20.78824
4.621051, 0.001503907, 0.0245105, 1.000027, -0.1169757, 0.1249025, 0.09117073, 20.83529
4.639933, -0.004355468, 0.02134033, 1.000563, 0.1269268, 0.1249025, -0.0002926588, 20.74118
4.659929, 0.002968751, 0.01427124, 1.005394, 0.1879025, -0.02753651, 0.09117073, 20.83529
4.679934, -0.002646483, 0.01744202, 0.9998111, -0.02551222, -0.1799756, 0.06068292, 20.83529
4.699933, -0.0002050772, 0.01449768, 1.003951, 0.03546345, 0.1249025, 0.06068292, 20.83529
4.719934, -0.002890624, 0.01914307, 0.9932422, 0.096439, -0.119, 0.03019512, 20.74118
4.739932, -0.004355468, 0.01476196, 0.998598, 0.03546345, 0.06392682, -0.06126827, 20.83529
4.75993, -0.0009374991, 0.017677, 0.9944489, 0.1879025, 0.1249025, -0.0002926588, 20.78824
4.779935, -0.003867187, 0.02012024, 0.9958831, 0.03546345, 0.1858781, 0.06068292, 20.88235
4.807304, -0.008261718, 0.01231812, 1.004956, 0.3098537, -0.02753651, 0.09117073, 20.83529
4.82126, 0.003212892, 0.01523376, 0.9941372, 0.03546345, 0.2773415, 0.1216585, 20.78824
4.839936, 0.000283204, 0.01548828, 1.006147, 0.004975557, 0.1858781, -0.7929757, 20.83529
4.85993, -0.01241211, 0.02304504, 0.9975424, 0.1269268, -0.02753651, -0.5185853, 20.78824
4.879931, 0.0007714853, 0.01401062, 0.9905158, 0.1879025, 0.2468537, 0.2740976, 20.78824
4.89993, 0.002236329, 0.02204895, 1.000509, -0.02551222, 0.09441471, 0.1521463, 20.83529
4.919932, -0.005820312, 0.01938843, 0.9946994, -0.2389269, -0.05802441, -1.158829, 20.78824
4.93993, -0.006308593, 0.01598572, 1.007107, -0.1779512, -0.2104634, -2.744195, 20.83529
4.959931, 0.002236329, 0.01525757, 0.9986044, -0.08648777, 0.1553903, -0.9759025, 20.74118
4.979933, 0.01297852, 0.01036682, 1.007828, 0.1269268, 0.1858781, -0.1832195, 20.74118
5.007457, -0.003623046, 0.01864563, 0.9966499, -0.05599999, 0.2468537, 0.09117073, 20.78824
5.021431, 0.001748048, 0.01477661, 1.001272, -0.1779512, 0.2163659, 0.1216585, 20.78824
5.039936, -0.005820312, 0.02086243, 0.9924995, -0.08648777, 0.1553903, -0.09175611, 20.78824
5.059933, -0.005576171, 0.01008728, 1.001791, 0.004975557, 0.4297805, 0.03019512, 20.78824
5.079927, -0.003623046, 0.01865356, 1.003997, 0.004975557, 1.131, 0.4875122, 20.78824
5.099928, 0.01078125, 0.01939026, 1.007864, -0.1474634, 0.2773415, 2.286293, 20.69412
5.119933, -0.00142578, 0.0149884, 0.9988688, 0.03546345, -0.1799756, 1.889951, 20.78824
5.139929, -0.006552733, 0.0174408, 0.9956785, -0.08648777, -0.2409512, 0.7923903, 20.69412
5.159936, -0.01241211, 0.01035828, 1.002291, 0.1269268, -0.08851218, 0.2131219, 20.78824
5.179928, -0.001669921, 0.01302795, 1.007625, 0.096439, -0.2104634, 0.09117073, 20.88235
5.207758, -0.00508789, 0.02231323, 1.002005, 0.06595123, -0.4848536, 0.4875122, 20.78824
5.221637, -0.0002050772, 0.01963135, 1.001526, 0.03546345, -0.5458293, 0.518, 20.83529
5.239938, -0.01094726, 0.01306152, 1.002512, -0.2694147, -0.7592439, -0.5490732, 20.88235
5.259932, -0.001914062, 0.01230713, 0.997601, -0.02551222, -0.271439, -0.06126827, 20.78824
5.279938, -0.001914062, 0.01841125, 0.9980779, 0.004975557, -0.1494877, -0.06126827, 20.74118
5.29993, 0.001748048, 0.01963928, 0.9988065, -0.08648777, 0.03343904, 0.06068292, 20.83529
5.319933, -0.003378905, 0.006524048, 0.9922924, 0.004975557, -0.1799756, -1.585659, 20.97647
5.339935, -0.007285155, 0.003796386, 1.005442, -0.2389269, -0.2409512, -3.140537, 20.78824
5.359928, 0.0007714853, 0.01304077, 1.015919, -1.549902, -1.09461, -4.969805, 20.78824
5.379928, -0.01167969, 0.005502929, 1.009709, -4.385268, -1.704366, -5.701512, 20.74118
5.407951, 0.0237207, 0.01160583, 0.9723302, -1.763317, -0.2409512, -3.719805, 20.83529
5.421955, 0.01395508, 0.02377686, 0.9958233, -0.8791706, -0.4238781, -2.95761, 20.74118
5.439934, -0.008749999, 0.03595154, 1.010745, -1.123073, -0.8202195, -2.95761, 20.74118
5.459934, 0.003945313, 0.03836548, 1.016728, -3.592585, -1.612902, -6.036878, 20.74118
5.479931, 0.02494141, 0.07854736, 1.066938, -4.507219, -0.9421706, -10.76249, 20.74118
5.499928, -0.02535156, 0.001098633, 1.035994, -12.25112, -3.777537, -7.317366, 20.78824
5.51993, -0.06856445, -0.021745, 1.053484, -25.08649, -0.6372926, -7.317366, 20.78824
5.539928, 0.03275391, -0.01057861, 0.9874351, -23.74503, 0.7651464, -3.658829, 20.74118
5.559932, 0.01053711, -0.02517334, 0.987852, -12.03771, -3.015341, 1.646049, 20.83529
5.579931, 0.0212793, -0.02228943, 1.024329, 8.785463, -8.015341, 11.09727, 20.78824
5.608037, -0.01680664, -0.0125177, 1.073318, 4.974488, -13.44217, 10.06068, 20.83529
5.622064, -0.01949219, -0.03101563, 1.022184, 2.748878, -13.32022, 8.170439, 20.83529
5.639934, 0.01078125, -0.05074036, 0.9427299, 3.511073, -7.558025, 7.133854, 20.74118
5.659927, 0.03397461, -0.07755188, 0.9439951, 13.96839, -4.997049, -6.28078, 20.69412
5.679927, 0.07010742, -0.01252686, 0.8946576, 25.15742, -4.631195, -16.82956, 20.83529
5.699928, 0.08402344, 0.01035339, 0.8997922, 27.80986, -1.064122, -18.78078, 20.74118
5.719927, 0.09061523, 0.1297058, 1.022867, 17.56595, -5.759244, -1.951512, 20.78824
5.739929, 0.03153321, 0.1304523, 1.134089, -16.70234, -7.131196, -0.8234634, 20.69412
5.759933, -0.1276465, -0.02809998, 1.188739, -34.78161, 1.496854, -1.677122, 20.78824
5.779932, -0.1066504, -0.0404834, 1.146111, -20.60478, 26.31393, 1.798488, 20.83529
5.808208, -0.02803711, 0.04690613, 0.9753804, 1.254976, 49.33222, 11.73751, 20.78824
5.822157, 0.07523438, 0.03038574, 0.9565401, 11.86473, 48.81393, 3.353366, 20.78824
5.839934, -0.03755859, 0.02521728, 1.01623, 23.66351, 41.8932, -3.079561, 20.78824
5.85993, -0.03389648, 0.05763488, 1.10254, 23.26717, 63.72247, -0.0002926588, 20.78824
5.879929, -0.04537109, -0.04985596, 1.198176, 20.03546, 79.54563, -8.93322, 20.78824
5.899928, -0.2235937, 0.223996, 1.433787, -7.708439, 157.442, 44.66434, 20.69412
5.919925, -0.3734961, -0.5192309, 0.7583711, -26.18405, 211.131, 16.40215, 20.88235
5.93993, -0.38375, 0.1536261, 1.139441, -43.10478, 201.8932, 77.86556, 20.78824
5.959928, -0.2819433, -0.05415833, 0.9988536, -36.42795, 133.9969, 45.518, 20.69412
5.979928, -0.2455664, 0.09392212, 1.032342, -60.66576, 90.97857, 41.34118, 20.74118
6.008382, -0.4430762, -0.1990241, 1.00902, -55.66576, 144.2408, 14.29849, 20.74118
6.022391, -0.4069434, -0.2348804, 0.7898287, -24.17186, 137.442, 10.12166, 20.83529
6.039936, -0.4042578, -0.1946771, 0.8584361, 2.413512, 118.509, -0.5185853, 20.88235
6.059933, -0.376914, -0.01699646, 1.031298, -14.90356, 147.0761, -1.280781, 20.78824
6.079928, -0.3627539, 0.1667664, 0.8650547, -36.61088, 84.94197, 26.06678, 20.78824
6.099933, -0.4181738, -0.001236573, 0.7388153, -36.03161, 61.95417, 35.54849, 20.88235
6.119929, -0.4894629, -0.1220349, 0.6762674, -11.64137, 68.84441, 34.0241, 20.78824
6.139935, -0.6659766, -0.1228412, 0.7505003, -3.226732, 90.8871, 17.04239, 20.88235
6.159932, -0.6230078, -0.1182147, 0.7651781, -4.690146, 95.58223, 6.280195, 20.78824
6.179932, -0.6432715, -0.06364136, 0.7469912, -7.921854, 85.91759, 3.597269, 20.78824
6.208601, -0.616416, 0.0493811, 0.4791221, -7.098682, 99.08832, 10.91434, 20.78824
6.222632, -0.5754004, -0.03831787, 0.5618481, 1.437902, 108.5091, 16.49361, 20.83529
6.239937, -0.6400977, -0.115163, 0.3501667, 21.28546, 120.6432, 23.96312, 20.83529
6.259932, -0.666709, -0.04980164, 0.6499825, 18.11473, 136.5578, 28.018, 20.83529
6.279933, -0.6950293, 0.02692993, 0.6556874, -4.873074, 154.1188, 31.2802, 20.74118
6.299935, -0.7929297, -0.06144775, 0.6367669, -19.50722, 147.6859, 22.7741, 20.83529
6.319929, -0.8476172, -0.08580505, 0.5022502, -15.51332, 129.0273, 9.603366, 20.88235
6.339929, -0.8586036, -0.03591187, 0.5799212, -6.397464, 116.7103, 9.54239, 20.78824
6.359936, -0.8178321, -0.007427368, 0.3990187, -0.2389269, 125.0029, 19.69483, 20.78824
6.379932, -0.8161231, 0.07171692, 0.3972383, -0.05599999, 81.10051, 24.5119, 20.78824
6.408715, -0.8490821, -0.04269043, 0.4714234, -6.245025, 88.53953, 8.383854, 20.64706
6.422773, -1.02999, -0.09676086, 0.3997587, -0.2389269, 87.35051, 2.316781, 20.83529
6.439934, -1.061728, -0.05174377, 0.3550892, 8.389122, 102.9298, 10.88385, 20.74118
6.459935, -1.048057, 0.05616089, 0.3190596, 3.175707, 117.3505, 10.48751, 20.83529
6.479926, -0.7406836, 0.09050232, 0.2586739, -9.141366, 137.0152, 21.31068, 20.78824
6.499926, -0.663291, -0.0354126, 0.1608951, 0.9805853, 148.7834, 21.0058, 20.83529
6.519934, -0.892295, -0.011297, 0.1235077, 18.26717, 139.6066, 12.86556, 20.74118
6.539928, -0.9919044, 0.03692932, 0.1451738, 23.41961, 120.7956, 12.59117, 20.83529
6.559927, -1.186728, 0.05371948, 0.1189404, 7.87083, 142.9907, -19.36005, 20.88235
6.57993, -1.126914, 0.01184875, 0.01555841, 7.992781, 122.5944, -35.9759, 20.78824
6.609007, -1.027549, 0.0176593, -0.03941603, 26.07205, 58.69198, -28.11005, 20.74118
6.623083, -0.861045, 0.01258057, -0.04283782, 31.04156, 87.8688, -11.21981, 20.78824
6.63994, -0.7843848, 0.01184204, -0.006785288, 33.14522, 117.8688, -0.09175611, 20.83529
6.65993, -0.8300391, -0.001065064, -0.120606, 43.63303, 44.82003, 6.585073, 20.78824
6.679932, -0.9482032, -0.005189209, -0.08496273, 45.34034, -11.06412, 5.426537, 20.78824
6.699929, -1.035361, 0.0351886, -0.0885247, 29.12083, -24.41778, 6.646049, 20.78824
6.719931, -1.114219, 0.05054443, -0.05682082, 4.212293, 3.08222, -8.536879, 20.83529
6.739931, -1.139365, -0.08048523, -0.135076, 9.608635, 46.16149, -20.42712, 20.74118
6.759932, -0.9030372, -0.01448181, -0.1650046, 25.55376, 28.17368, -0.4576097, 20.74118
6.779928, -0.8937598, 0.004539794, -0.1555163, 25.76717, -22.25315, 16.73751, 20.74118
6.809044, -1.022178, -0.02688599, -0.05511312, 4.639122, -43.92998, 12.86556, 20.78824
6.823091, -1.114951, -0.003001709, -0.04640689, -5.665756, -43.16778, 14.20702, 20.69412
6.839939, -1.111289, 0.007445678, -0.0702562, -16.97673, -31.21656, 15.88385, 20.78824
6.859932, -1.031455, 0.003786011, -0.09453264, -18.83649, -14.69217, 11.61556, 20.88235
6.879928, -0.8620215, 0.04811401, -0.119769, -11.64137, -16.97876, 22.10337, 20.78824
6.899928, -0.9521094, -0.01594177, -0.08775659, 0.2183902, -35.78974, 16.92044, 20.88235
6.91993, -1.024619, -0.001799927, -0.02025126, 1.133024, -41.09461, 5.335073, 20.74118
6.939932, -1.056602, -0.01665527, 0.0201257, 0.7671707, -11.64339, -2.744195, 20.78824
6.959931, -1.032676, 0.008673706, -0.02676786, -0.8791706, 14.02734, -2.408829, 20.74118
6.979933, -0.9811622, 0.04178467, -0.05806703, 1.529366, 22.41149, 3.780195, 20.88235
7.009167, -0.9562598, 0.03033508, -0.07634571, 11.07205, -5.484854, 9.969219, 20.74118
7.023166, -0.9528419, 0.03594482, -0.06149263, 13.02327, -19.17388, 10.48751, 20.83529
7.039936, -0.999961, 0.04301514, -0.004698902, 8.389122, -17.16168, 3.902146, 20.83529
7.05993, -1.069297, 0.03643738, -0.0005561561, -2.586488, -2.039732, -8.049074, 20.83529
7.079932, -1.003379, 0.02913635, -0.05179456, -4.568195, -0.08851218, -8.414927, 20.83529
7.099931, -0.9630958, 0.02498291, -0.05399437, -0.6047806, 0.8870975, -5.945415, 20.78824
7.119931, -0.9506446, 0.04129761, -0.04502615, 1.590341, -5.698268, 2.072878, 20.74118
7.139931, -0.9494239, 0.02960938, -0.02393375, 2.840342, -19.29583, 7.438732, 20.78824
7.159931, -1.029258, 0.01474915, 0.02032141, 0.3403414, -11.24705, 3.871659, 20.88235
7.179931, -1.079062, 0.02716797, 0.004774153, -0.8791706, 3.448073, -2.896634, 20.88235
7.209481, -1.029014, 0.0413092, -0.04594283, 5.828146, 10.85661, -3.323463, 20.83529
7.223547, -0.9909278, 0.04446716, -0.050345, 8.297659, 8.844415, -1.677122, 20.69412
7.239936, -0.9699317, 0.04420227, -0.03628935, 8.023269, 3.509049, 1.524098, 20.88235
7.259931, -0.9941016, 0.04422852, -0.009574071, 0.004975557, 9.027342, 1.188732, 20.88235
7.27993, -1.007773, 0.03644714, -0.0179788, -5.60478, 14.75905, 1.188732, 20.88235
7.299934, -0.9816504, 0.01889893, -0.04813626, -5.635268, 6.557829, 5.822878, 20.83529
7.319931, -0.9604102, 0.01159546, -0.06121535, -3.927951, -16.97876, 10.518, 20.83529
7.339927, -0.9591895, 0.01548279, -0.04866533, -1.85478, -38.41168, 9.146049, 20.88235
7.359928, -0.9997169, 0.03690979, -0.01366711, -5.818195, -49.90559, 3.109464, 20.88235
7.379929, -0.9970313, 0.03618347, 0.01115495, -8.226731, -45.17998, -0.06126827, 20.88235
7.409657, -0.9962989, 0.07253418, -0.05014801, -1.763317, -76.30803, 3.139951, 20.78824
7.42369, -0.9804297, 0.03813965, 0.0262152, 4.883024, -105.4239, 6.341171, 20.74118
7.439939, -0.9811622, 0.03276672, 0.07759707, 7.261073, -100.8202, 5.121659, 20.78824
7.459934, -0.9767676, 0.02838989, 0.1302888, 1.74278, -76.67388, -5.03078, 20.78824
7.47993, -1.048301, 0.06077698, 0.1779238, -6.824292, -74.29584, -11.95151, 20.88235
7.499926, -1.025596, 0.08634583, 0.1742163, -8.653561, -102.558, -5.975903, 20.83529
7.519932, -0.9711524, 0.02330688, 0.1757303, 2.078146, -153.6556, -7.500292, 20.83529
7.53993, -0.894004, 0.05078003, 0.224737, 14.30376, -250.9422, -8.201512, 20.88235
7.559928, -0.9110938, -0.05803955, 0.3642505, -1.824293, -124.1739, -12.2259, 20.83529
7.57993, -0.9052344, 0.05713318, 0.403811, -13.04381, -111.7958, -5.884439, 20.74118
7.609785, -1.020957, 0.04101624, 0.4359229, -33.16576, -56.1251, 9.908244, 20.83529
7.623931, -0.8617774, 0.03154602, 0.3871577, -31.09259, -32.8629, 12.0119, 20.83529
7.639933, -0.9281837, -0.005944825, 0.4037944, -27.73893, -42.3751, 3.536293, 20.88235
7.659929, -0.7807227, -0.01590515, 0.3802491, -23.86698, -11.94827, -3.140537, 20.78824
7.679934, -0.8549415, -0.01639892, 0.3897145, -11.61088, -68.3812, 2.316781, 20.78824
7.699932, -0.8505469, 0.04105774, 0.4723299, -13.59259, -74.60072, 13.07898, 20.88235
7.719931, -0.8376075, 0.001837158, 0.5182252, -10.17795, -90.30193, 24.08507, 20.78824
7.73993, -0.8227149, -0.0351648, 0.5558516, 2.078146, -114.4178, 25.06068, 20.78824
7.759931, -0.7929297, 0.04056335, 0.5410037, 7.291561, -115.8202, 31.79849, 20.78824
7.77993, -0.7680274, 0.03326111, 0.583836, 7.657414, -116.5214, 27.71312, 20.88235
7.809838, -0.7538672, 0.09366882, 0.6493883, -17.46454, -111.7044, 12.89605, 20.83529
7.823908, -0.7289649, 0.08194458, 0.66174, -20.056, -124.6312, 16.12776, 20.88235
7.839939, -0.630332, 0.08539368, 0.6763527, -10.48283, -143.7775, 29.35946, 20.83529
7.85993, -0.5954199, 0.1011847, 0.7260894, 4.730585, -160.2714, 44.20703, 20.92941
7.87993, -0.6278906, 0.08536804, 0.7942761, -7.769415, -130.4849, 36.73752, 20.78824
7.899931, -0.7279883, 0.1635437, 0.8735257, -37.556, -105.4849, 30.97532, 20.74118
7.919931, -0.6742774, 0.0963324, 0.8159957, -42.19015, -94.78364, 31.00581, 20.83529
7.939932, -0.5448828, 0.09829651, 0.8059605, -35.51332, -101.7349, 25.67044, 20.88235
7.959934, -0.5224219, 0.07635925, 0.7968819, -20.54381, -137.4666, 20.94483, 20.78824
7.979929, -0.3620215, 0.02352661, 0.7168936, -8.653561, -148.1373, 18.5058, 20.88235
8.010075, -0.3898535, 0.09464539, 0.8894823, -27.00722, -114.0214, 21.67654, 20.88235
8.024149, -0.3944922, 0.1102069, 0.9167788, -32.98283, -88.1373, 23.17044, 20.74118
8.039935, -0.4254981, 0.06590393, 0.9616339, -26.94625, -74.3873, 23.23142, 20.74118
8.059932, -0.3441992, 0.06857849, 0.9269958, -6.610878, -82.92388, 25.63995, 20.83529
8.079934, -0.2450781, 0.03571472, 0.9480551, 10.15742, -82.95437, 18.2619, 20.83529
8.099934, -0.2990332, 0.07247192, 1.02967, -0.4523415, -63.68608, 16.49361, 20.74118
8.119929, -0.3192969, 0.100473, 1.117853, -22.67795, -46.46047, 15.70093, 20.83529
8.139934, -0.3415137, 0.04226563, 1.143175, -39.87307, -33.77754, 7.560683, 20.83529
8.159929, -0.300498, 0.005062866, 1.080515, -36.21454, -32.49705, 1.036293, 20.83529
8.179932, -0.220664, -0.02932251, 0.9937012, -20.69624, -29.38729, -0.5490732, 20.88235
8.210239, -0.1349707, -0.01346985, 0.9453924, -9.720634, -31.1251, 8.871658, 20.78824
8.224418, -0.1720801, -0.02394958, 0.9651117, -10.90966, -22.52754, 7.591171, 20.83529
8.239937, -0.168418, -0.03370544, 0.9463257, -12.89137, -8.564121, 6.737513, 20.83529
8.259933, -0.2021094, -0.02373413, 0.9803461, -14.01942, 7.990757, 6.646049, 20.78824
8.279932, -0.1625586, 0.04304077, 0.9975858, -9.690146, 20.24686, 9.999707, 20.78824
8.299925, -0.1779394, -0.01130127, 1.041133, -5.696244, 10.85661, 7.926537, 20.78824
8.31993, -0.4674902, -0.1371613, 1.508203, -27.00722, -58.1068, -21.58566, 20.78824
8.339931, -0.2438574, 0.01426941, 0.8923334, -28.74503, -55.78973, -20.88444, 20.92941
8.359932, -0.01460937, 0.009630736, 0.791138, -9.62917, -7.649488, -2.012488, 20.78824
8.379927, -0.07393555, -0.01177124, 0.8828305, -0.5742927, 28.75295, 5.396049, 20.83529
8.410412, -0.07540039, -0.0154303, 1.112535, -0.208439, 4.454171, 9.389951, 20.78824
8.424509, -0.1195898, -0.04120361, 1.051219, -3.318195, -10.14949, -4.817366, 20.78824
8.439937, -0.2702246, 0.04226257, 0.9014859, 4.66961, -6.948268, -4.085659, 20.78824
8.45993, -0.1073828, -0.01252136, 0.924221, 13.90742, -0.3324146, 2.072878, 20.88235
8.479933, -0.1313086, -0.006934204, 1.012972, 9.913512, 11.03954, 4.877756, 20.78824
8.499925, -0.1396094, -0.0319989, 1.031165, 8.907414, 14.1188, 5.487513, 20.78824
8.519932, -0.1398535, -0.003757325, 0.967151, 10.88912, 14.6371, 8.932634, 20.88235
8.53993, -0.1098242, 0.01404785, 1.035103, 2.322049, -1.948268, 3.444829, 20.78824
8.559935, -0.1938086, 0.02621948, 1.246701, -0.02551222, -58.65559, 13.20093, 20.88235
8.579933, -0.1256933, 0.03766418, 1.007421, -17.12917, -90.6373, 18.23141, 20.83529
8.610591, -0.1264258, -0.0692572, 0.977765, -16.76332, -57.67998, 5.426537, 20.74118
8.624631, -0.09810547, -0.05390869, 0.9983118, -10.66576, -33.56412, -2.317366, 20.88235
8.639933, -0.09444336, -0.04417114, 1.059359, -7.708439, -17.64949, -12.62225, 20.88235
8.659928, 0.03128906, 0.2413165, 1.121526, -16.64137, -9.936073, 16.46312, 20.78824
8.67993, -0.2638769, -0.08782532, 1.105309, -27.89137, -56.55193, -8.292976, 20.74118
8.699929, 0.02933594, -0.01884033, 1.023551, -26.09259, -95.11901, -2.225903, 20.78824
8.719929, -0.09175781, -0.05171692, 0.996279, -23.95844, -129.3568, -3.292976, 20.78824
8.739931, 0.04935547, -0.06608765, 0.9152159, -18.89746, -144.4178, -4.634439, 20.78824
8.75993, 0.04984375, -0.09357971, 1.011491, -22.19015, -167.7714, -25.36615, 20.74118
8.779932, 0.1606836, -0.1057873, 0.931359, -11.03161, -172.8324, -26.64664, 20.88235
8.810776, 0.1880274, -0.09944092, 1.033296, 7.078147, -205.241, -17.34785, 20.78824
8.824923, 0.1999903, -0.07261231, 1.036008, 17.38302, -234.2654, -18.07956, 20.88235
8.839934, 0.2995996, -0.08728577, 0.8613748, 22.53546, -248.6861, -24.14664, 20.74118
8.859933, 0.5178613, -0.0001239013, 0.7979574, 21.13302, -240.9422, -16.92102, 20.74118
8.879932, 0.5256738, 0.009397583, 0.7372701, 11.92571, -198.1068, -3.628341, 20.83529
8.899924, 0.5239648, -0.01905823, 0.7181359, 21.55986, -150.0885, 3.780195, 20.83529
8.919928, 0.4607324, -0.1184668, 0.6677913, 44.27327, -124.8446, 7.438732, 20.83529
8.939931, 0.5500879, -0.1298938, 0.7996204, 47.90132, -133.2897, 6.585073, 20.83529
8.95993, 0.6243066, -0.01224792, 0.8956265, 14.24278, -152.558, 0.1521463, 20.83529
8.979926, 0.7505273, 0.01647644, 0.7778708, -22.52551, -161.6129, 3.810683, 20.83529
9.010888, 0.7976465, -0.04246765, 0.5507603, -20.20844, -180.6983, 7.438732, 20.83529
9.025034, 0.8074121, -0.05951355, 0.528395, -10.11698, -163.1068, 10.09117, 20.88235
9.039934, 0.755166, -0.0604895, 0.516849, -6.214537, -141.5519, 6.585073, 20.88235
9.059932, 0.7549219, -0.0675531, 0.5279603, -4.171854, -113.2592, 7.04239, 20.69412
9.079935, 0.8572167, -0.03370789, 0.4543883, 3.907415, -85.78974, 7.04239, 20.78824
9.099934, 0.8699121, -0.04420166, 0.3551842, 12.87083, -78.74706, 3.536293, 20.83529
9.119932, 0.8530663, -0.02616211, 0.3727471, 6.773269, -93.41169, 1.127756, 20.74118
9.139927, 0.9263085, -8.300785e-05, 0.3416334, 3.328146, -102.9239, 4.481415, 20.74118
9.159935, 0.9346093, -0.01568604, 0.4191128, -2.403561, -117.2836, 9.115561, 20.83529
9.179931, 0.9187402, -0.06244202, 0.4608527, -1.702342, -120.058, 11.85946, 20.74118
9.211048, 0.8987206, -0.08116699, 0.3863794, 11.68181, -138.2288, 2.774097, 20.83529
9.225175, 0.8086328, -0.1370062, 0.3630362, 19.39522, -167.8324, -16.64664, 20.92941
9.239934, 0.8484277, -0.07146362, 0.2367119, 15.91961, -182.7105, -27.01249, 20.88235
9.259932, 0.8684472, -0.02791138, -0.1375462, -2.616976, -144.6617, -35.30517, 20.88235
9.279928, 1.00834, 0.07147644, -0.2139469, 2.444, -95.21048, -19.96981, 20.78824
9.299932, 1.081094, 0.0157428, 0.04384248, 9.456196, -78.04584, -7.622244, 20.88235
9.319927, 1.03251, -0.02762146, 0.1442647, 20.46229, -94.66169, 2.74361, 20.88235
9.339932, 1.086709, -0.0341748, 0.06371727, 24.05986, -92.37511, 9.999707, 20.88235
9.359934, 1.067666, -0.02010498, -0.002798021, 21.04156, -65.60681, 13.50581, 20.78824
9.37993, 1.014199, -0.03517151, -0.1003703, 10.49278, -29.50925, 3.566781, 20.78824
9.411269, 0.9880761, -0.02299316, -0.1130402, -2.251122, 1.893195, -5.305171, 20.83529
9.425473, 0.9822167, -0.00496277, -0.1097504, -1.488927, -0.119, -3.201512, 20.83529
9.439933, 0.9890527, -0.001793213, -0.1544498, 2.596439, 9.362707, -0.732, 20.64706
9.459931, 1.010293, -0.03954529, 0.03458808, -6.427952, 10.82612, 2.46922, 20.88235
9.479926, 0.9866113, -0.04464905, 0.1046189, -16.82429, 1.283439, -1.829561, 20.78824
9.499932, 0.9538964, -0.02883179, -0.02961472, -28.71454, -6.64339, -4.299073, 20.88235
9.519927, 0.9929589, -0.03175904, -0.06977176, -30.33039, -14.44827, -7.591756, 20.78824
9.53993, 0.9370507, -0.02594483, -0.1949498, -15.75722, -25.57632, -12.34785, 20.78824
9.559937, 1.010293, -0.02129456, -0.1691117, -4.293805, -15.6068, -13.01859, 20.78824
9.579926, 1.121377, 0.01232544, -0.1230155, 0.06595123, 17.25905, -2.927122, 20.88235
9.6114, 1.068154, -0.01251526, -0.01440336, -0.9096586, 45.94808, 3.231415, 20.88235
9.625634, 1.027627, -0.01349243, -0.03259538, 0.096439, 32.59441, 1.646049, 20.78824
9.639932, 0.9961328, -0.01689087, -0.0417593, 2.108634, 1.070024, -0.2441951, 20.88235
9.659924, 0.9785546, -0.004722291, -0.1302352, 5.675708, -11.82632, -1.372244, 20.83529
9.679926, 0.9609765, 0.0003875727, -0.08557335, 10.82815, 3.173683, -0.9149269, 20.83529
9.699932, 0.9817285, -0.008612671, -0.02046609, 12.07815, 22.10661, -0.6405365, 20.83529
9.719933, 1.011025, -0.02007141, -0.01198871, 13.41961, 29.27125, 0.518, 20.92941
9.73993, 1.030068, -0.01469849, 0.02788596, 1.74278, 36.55783, 2.04239, 20.88235
9.759933, 1.012979, -0.02347718, 0.05383822, -1.397464, 16.131, 1.798488, 20.88235
9.779931, 0.965371, -0.01178833, -0.008536324, -4.78161, -0.6982683, -1.097854, 20.78824
9.811583, 0.9763574, -0.004243165, -0.02605583, 0.2183902, -13.32022, -2.500293, 20.88235
9.825872, 0.9775781, -0.008386231, -0.03871801, 3.14522, -10.33242, -1.494195, 20.83529
9.83994, 0.9890527, -0.002038575, -0.04284291, 1.773268, 1.161488, -0.884439, 20.92941
9.859929, 1.010293, -0.01057922, -0.01999183, -0.1474634, 13.35661, 1.981415, 20.92941
9.879934, 1.025186, -0.01959595, 0.01064245, 2.078146, 10.06393, 0.4265366, 20.74118
9.899926, 1.023232, -0.001312256, -0.01803233, 2.078146, 0.2163659, 0.9448293, 20.92941
9.919934, 0.9975976, -0.01495422, -0.004646644, 3.633024, -17.16168, -0.2441951, 20.83529
9.939931, 0.9890527, -0.01446655, -0.00126946, 6.864732, -28.56412, -1.219805, 20.92941
9.959932, 1.022256, -0.005216675, -0.04959856, 2.413512, -10.119, 0.8228781, 20.74118
9.979931, 1.028604, -0.0108197, -0.02806248, 0.1269268, 10.8871, 2.46922, 20.83529
10.01171, 1.022256, -0.01860229, -0.006151006, 5.797659, 10.73466, 1.341171, 20.78824
10.02603, 1.010537, -0.01324402, -0.00932993, 4.181805, 4.789536, 1.341171, 20.88235
10.04001, 1.003945, -0.01933289, -0.007844687, 0.7671707, -1.765342, 1.402146, 20.83529
10.05994, 0.9949121, -0.02202209, -0.0313683, -2.891366, -4.84461, 0.3960488, 20.88235
10.07994, 1.016641, -0.006428833, -0.06005965, -0.3913659, 5.948073, 0.670439, 20.88235
10.09993, 1.039346, 0.001116333, -0.06591648, 0.9500976, 25.27734, 1.097268, 20.88235
10.11993, 1.051797, -0.003750611, -0.04715461, 4.486683, 52.65539, 2.682634, 20.78824
10.13993, 1.053506, -0.00571045, 0.008633256, 5.462293, 77.8688, 3.475317, 20.92941
10.15993, 1.026895, -0.01300415, 0.09105921, 1.773268, 76.98466, 2.438732, 20.74118
10.17993, 0.9697656, -0.01397339, 0.08100229, -0.8181952, 61.95417, 1.889951, 20.83529
10.21192, 0.9338769, -0.03396484, 0.1243727, -2.434049, 45.18588, -3.171024, 20.78824
10.22626, 0.907998, -0.02809204, 0.0633508, -2.434049, 60.73466, -7.561268, 20.88235
10.24029, 0.9175195, -0.007189941, 0.03663807, -0.9706343, 92.50296, -6.555171, 20.88235
10.25994, 0.9836816, 0.001618042, 0.1426839, 5.553756, 132.6249, 2.896049, 20.83529
10.27993, 0.9995507, -0.02762146, 0.2882041, 9.883025, 138.57, -7.103951, 20.88235
10.29993, 0.9971093, -0.010354, 0.3006005, 4.090342, 115.0334, -8.536879, 20.78824
10.31993, 0.9399804, -0.01078979, 0.3168814, -6.275513, 84.97247, -16.06737, 20.88235
10.33993, 0.8933496, -0.0222583, 0.3133608, -11.24503, 61.98466, -21.92102, 20.88235
10.35993, 0.8979882, -0.001553956, 0.2518201, -18.83649, 72.41148, -29.29908, 20.78824
10.37993, 0.9038476, 0.003526, 0.3197168, -23.47064, 103.2956, -30.39664, 20.88235
10.41228, 0.9172753, 0.01597961, 0.5008912, -25.90966, 117.4115, -27.13444, 20.88235
10.42658, 0.9255761, 0.02500061, 0.5405383, -28.40966, 101.3749, -29.29908, 20.78824
10.44056, 0.9602441, 0.05103088, 0.4922602, -34.38527, 85.58223, -24.66493, 20.78824
10.45993, 0.9399804, 0.04715576, 0.4390533, -39.84259, 83.8749, -18.90273, 20.83529
10.47993, 0.9009179, 0.03886047, 0.3475208, -33.53161, 126.4054, -12.9881, 20.88235
10.49993, 0.8625878, 0.0498053, 0.40789, -17.12917, 187.381, -3.597854, 20.78824
10.51993, 0.7014551, 0.001611938, 0.6172203, -4.110878, 195.1249, 4.176537, 20.74118
10.53993, 0.6435937, -0.003753662, 0.7588814, 10.30985, 168.7529, -4.055171, 20.92941
10.55993, 0.6394433, 0.02352478, 0.8194417, 5.614732, 141.3444, -20.82346, 20.78824
10.57993, 0.6230859, 0.01867248, 0.7244186, 2.261073, 128.1737, -32.37834, 20.78824
10.6124, 0.649209, 0.04200256, 0.6753099, 7.596439, 177.7773, -33.44542, 20.83529
10.62673, 0.5942773, 0.06077148, 0.7774737, -1.702342, 189.0883, -37.19542, 20.83529
10.6407, 0.5156641, 0.06369751, 0.8812847, -14.23283, 181.07, -46.43322, 20.78824
10.65994, 0.4709863, 0.05712585, 0.9201241, -24.26332, 151.0395, -50.33566, 20.88235
10.67993, 0.4275293, 0.03959839, 0.8810807, -23.16576, 119.759, -47.16493, 20.78824
10.69993, 0.3806543, 0.02767578, 0.8501066, -13.47063, 137.32, -38.4759, 20.78824
10.71993, 0.3269434, 0.09291382, 0.8880289, 4.761073, 182.5944, -33.96371, 20.88235
10.73993, 0.2314844, 0.1097369, 0.9382231, -6.824292, 207.6554, -39.69542, 20.74118
10.75993, 0.1933985, 0.08077698, 0.9832898, -14.87307, 176.6188, -55.03078, 20.83529
10.77993, 0.1475, 0.05683777, 1.092141, -3.165756, 129.2408, -60.79298, 20.83529
10.81258, 0.1807031, 0.09145813, 1.020889, 12.96229, 131.009, -22.83566, 20.92941
10.82684, 0.0290918, 0.07344239, 1.090674, 16.80376, 123.3261, -24.14664, 20.83529
10.84081, -0.06929688, 0.0659021, 1.132211, 29.7001, 101.9237, -26.37225, 20.83529
10.85994, -0.1408301, 0.1223853, 1.145538, 26.83425, 99.54563, -41.34176, 20.78824
10.87993, -0.1276465, 0.1443079, 1.155073, -12.03771, 70.8566, -68.7503, 20.78824
10.89993, 0.03153321, 0.1116644, 1.126727, -46.45844, 37.32003, -97.16494, 20.78824
10.91993, 0.1675195, 0.01944946, 0.7500834, -13.62307, 0.6431952, -75.76249, 20.88235
10.93993, -0.007529296, 0.07126526, 0.9613745, 12.38303, -4.692171, -54.20761, 20.88235
10.95993, -0.06905273, 0.08610413, 1.023159, 23.11473, -5.759244, -30.4881, 20.92941
10.97993, -0.1576758, 0.1362341, 1.113284, 13.60254, -1.734854, -26.61615, 20.83529
11.01279, -0.08443359, 0.1224023, 0.9665741, -2.464537, 21.07002, -34.05517, 20.78824
11.02708, -0.01314453, 0.1216785, 0.946355, -2.129171, 38.53954, -34.45151, 20.88235
11.04097, -0.1159277, 0.05762268, 1.02074, 2.047658, 27.99076, -34.32956, 20.88235
11.05993, -0.1083594, 0.05591614, 0.9531744, 12.50498, 0.002951264, -25.39664, 20.88235
11.07993, -0.08858398, 0.07758301, 0.951014, 22.87083, -13.80803, -18.14054, 20.88235
11.09992, -0.1029883, 0.09926331, 1.001493, 26.34644, -16.8568, -12.25639, 20.88235
11.11993, -0.1664648, 0.1221429, 0.9978732, 23.41961, -11.00315, -9.725903, 20.88235
11.13993, -0.1676855, 0.1435449, 1.023645, 14.18181, 2.350512, -6.463707, 20.88235
11.15994, -0.1325293, 0.1043683, 0.9976456, 7.108634, 14.33222, -6.311268, 20.78824
11.17993, -0.09200195, 0.1201965, 1.022461, 6.224488, 22.65539, -5.274683, 20.78824
11.21292, -0.1266699, 0.105119, 1.069387, -1.641366, -13.59461, -9.421025, 20.74118
11.22723, -0.1393652, 0.09268494, 1.068883, -2.738927, -28.83851, -16.03688, 20.83529
11.24112, -0.2270117, 0.1410065, 1.106808, -9.232829, -38.16778, -17.89664, 20.88235
11.25993, -0.1283789, 0.1394311, 0.9511372, -19.8121, -13.83851, -14.57346, 20.74118
11.27993, -0.0934668, 0.1087286, 0.9886673, -23.50112, -0.6982683, -11.03688, 20.83529
11.29993, -0.0490332, 0.07365784, 0.924221, -18.01332, 9.850512, -7.134439, 20.92941
11.31994, -0.03414062, 0.06124084, 0.9708844, -9.385268, 13.57002, -6.799073, 20.78824
11.33993, -0.1125098, 0.09243408, 1.066059, -18.3182, 16.49685, -9.390537, 20.92941
11.35993, -0.1623144, 0.04129456, 1.111536, -31.42795, 2.746854, -16.00639, 20.78824
11.37993, -0.1540137, 0.04642151, 1.050861, -32.95234, -16.18607, -22.07346, 20.78824
11.41307, -0.06075195, 0.0607843, 0.9808599, -28.68405, -13.16778, -17.9881, 20.83529
11.42731, -0.07588867, 0.06735778, 0.9939403, -36.73283, 3.966366, -14.02468, 20.88235
11.44114, -0.08589844, 0.05761597, 1.069051, -51.45844, 22.25905, -11.82956, 20.78824
11.45993, -0.163291, 0.01549377, 1.140193, -84.41576, 28.44807, -18.29298, 20.78824
11.47993, -0.1933203, -0.001795044, 1.036008, -98.47064, 34.02735, -30.79298, 20.88235
11.49993, -0.1842871, -0.04074402, 1.060529, -102.678, 20.03344, -40.27468, 20.83529
11.51993, -0.147666, -0.09944336, 1.064936, -107.9828, 3.661488, -38.84175, 20.83529
11.53993, -0.06392578, -0.112146, 0.9815961, -112.9523, 6.740756, -26.28078, 20.83529
11.55993, -0.09273438, -0.1530371, 0.9229155, -111.9462, 10.91759, -14.78688, 20.83529
11.57993, -0.09419922, -0.1822485, 0.8137691, -97.49503, 13.20417, -9.512488, 20.97647
11.6133, -0.1920996, -0.2487354, 1.014346, -83.74503, 28.96637, -20.9759, 20.88235
11.62756, -0.1816015, -0.2516534, 1.098252, -97.73893, 27.92978, -25.94542, 20.88235
11.64147, -0.2069922, -0.2764801, 1.093597, -111.8243, 20.00295, -30.2442, 20.83529
11.65993, -0.1825781, -0.2988934, 1.066988, -131.5804, 3.021244, -37.25639, 20.78824
11.67993, -0.1745215, -0.3704797, 0.9979573, -143.4706, -13.3812, -36.34176, 20.88235
11.69993, -0.1593848, -0.374657, 0.8535322, -143.1658, -22.8629, -32.62224, 20.92941
11.71993, -0.07637695, -0.4065289, 0.6170704, -117.0987, -1.612902, -16.58566, 20.83529
11.73993, -0.2187109, -0.5531372, 0.6095933, -76.12308, 16.07002, -17.31737, 20.92941
11.75993, -0.1300879, -0.5753192, 0.7727918, -57.40356, 25.76515, -16.25029, 20.92941
11.77993, -0.09810547, -0.5090857, 0.9469778, -75.84869, 26.83222, -19.78688, 20.83529
11.81342, -0.1786719, -0.553642, 0.9296584, -133.6841, 0.002951264, -35.82346, 20.83529
11.82785, -0.158164, -0.5502398, 0.845174, -148.684, -5.149488, -30.85395, 20.83529
11.84184, -0.1462012, -0.5565515, 0.7544843, -158.4402, -9.082415, -25.82346, 20.88235
11.85993, -0.1332617, -0.6346899, 0.6832078, -161.3975, -11.55193, -22.89664, 20.88235
11.87992, -0.1720801, -0.7236176, 0.6039366, -150.7267, -12.25315, -39.32956, 20.97647
11.89993, 0.01566406, -0.7513739, 0.5114975, -130.0865, -5.210464, -28.84176, 20.78824
11.91993, -0.02999023, -0.8132471, 0.4409032, -101.367, 1.984659, -22.68322, 20.88235
11.93993, -0.02632812, -0.812522, 0.5514991, -87.61698, 3.265146, -17.71371, 20.88235
11.95994, -0.09517578, -0.782088, 0.6301394, -98.65356, -2.771439, -11.67712, 20.88235
11.97993, -0.1056738, -0.8317591, 0.612507, -116.7633, -11.00315, -12.83566, 20.83529
12.01365, -0.04073242, -0.8531855, 0.4240007, -128.7755, -12.34461, -9.878342, 20.78824
12.02802, -0.009726562, -0.8373481, 0.3832196, -126.1231, -6.429976, 0.4265366, 20.92941
12.04196, -0.04292969, -0.9150146, 0.3461146, -119.5682, -0.1799756, 4.146049, 20.88235
12.05993, -0.05147461, -0.9681208, 0.3032491, -100.5133, 7.167585, 3.627756, 20.88235
12.07993, -0.07173828, -0.9128687, 0.3321948, -98.28772, 7.259049, -0.7624878, 20.78824
12.09993, -0.08516602, -0.9381556, 0.3438663, -104.2938, -3.228756, -12.59176, 20.88235
12.11993, -0.04683594, -0.9518225, 0.2850927, -106.9157, -0.3324146, -8.902732, 20.92941
12.13993, -0.03804687, -0.8719592, 0.2537617, -115.5743, 5.704171, -1.70761, 20.97647
12.15993, -0.06563477, -0.8724286, 0.1878723, -124.4462, 6.070024, -8.963708, 20.78824
12.17993, -0.05660156, -0.9522985, 0.1534835, -131.3365, -2.832415, -16.21981, 20.88235
12.2138, -0.01192383, -1.019552, -0.1583114, -96.82429, -6.369, -17.10395, 20.83529
12.22822, -0.05904297, -1.050007, -0.191092, -69.75112, -5.698268, -12.83566, 20.83529
12.24222, -0.003134765, -1.038292, -0.1383085, -47.92186, -8.442171, -7.744195, 20.83529
12.25993, -0.01607422, -1.024633, -0.07704116, -28.16576, -5.606805, -2.286878, 21.02353
12.27993, -0.01070312, -0.9851782, 0.02977791, -27.73893, 1.862707, -0.884439, 20.83529
12.29993, -0.02730469, -1.010504, 0.008684233, -30.11698, 6.984659, -1.70761, 20.92941
12.31993, -0.01387695, -0.9817725, -0.07461378, -23.07429, 8.600513, 0.4875122, 20.92941
12.33993, -0.01631836, -0.9949041, -0.08022392, -11.76332, 3.570024, -1.951512, 20.92941
12.35993, -0.01851562, -0.9859009, -0.1034983, -2.159659, -2.131195, -4.177122, 20.78824
12.37993, -0.02388672, -0.962528, -0.05376935, 2.078146, -8.076317, -8.232, 20.97647
12.41398, -0.03487304, -1.031689, -0.009529456, -0.02551222, -5.484854, -7.896635, 20.83529
12.42835, -0.02803711, -1.01173, -0.002253666, -2.708439, -3.045829, -5.152732, 20.92941
12.44227, -0.03755859, -0.9875971, -0.01435365, -4.690146, -2.466561, -2.713707, 20.83529
12.45993, -0.01705078, -0.9922369, -0.04207225, -5.391366, -1.582415, 0.5484878, 20.88235
12.47993, -0.004843749, -0.9905085, -0.06562518, -0.9401464, -4.539732, -0.1832195, 20.97647
12.49994, -0.01094726, -1.004156, -0.03683115, -0.2694147, -1.64339, -0.2137073, 20.83529
12.51993, -0.00533203, -1.021428, -0.03964487, 3.541561, -0.5458293, 0.518, 20.88235
12.53993, -0.008261718, -1.028776, -0.01756443, 5.980585, -4.539732, 0.03019512, 20.88235
12.55993, -0.001669921, -0.9866376, -0.01902163, 6.011073, -4.265342, 1.463122, 20.83529
12.57993, -0.00508789, -0.9881159, -0.01635648, 6.163512, -5.362903, 1.158244, 20.92941
12.61411, -0.02291016, -0.974223, -0.01633227, 2.870829, -6.277537, -3.262488, 20.88235
12.62845, -0.03145508, -0.972525, -0.03890735, 3.541561, -4.173878, -2.53078, 20.83529
12.64228, -0.02217773, -0.9902924, -0.0350266, 4.944, -2.436073, -2.866147, 20.83529
12.65994, -0.03389648, -1.01368, -0.01242728, 6.346439, -1.795829, -3.811268, 20.88235
12.67993, -0.009726562, -1.010504, 0.007452056, 3.328146, -1.856805, -3.292976, 20.88235
12.69993, -0.01607422, -0.9922565, 0.005539715, -1.85478, -1.948268, -3.994195, 20.83529
12.71994, -0.002402343, -0.9822571, -0.01661973, -4.385268, -1.978756, -2.561268, 20.92941
12.73993, -0.002890624, -1.017062, -0.03239457, -1.275512, 0.1858781, -2.103951, 20.92941
12.75993, -0.004599608, -1.023168, -0.03169273, 4.944, -1.125098, -1.921024, 20.88235
12.77993, -0.002402343, -1.01004, -0.009016961, 9.090342, -1.521439, -0.2137073, 20.78824
12.81423, 0.001259767, -1.003438, 0.02037494, 6.163512, -0.7897317, 0.670439, 20.88235
12.82861, -0.01607422, -0.99104, 0.0162475, 2.383024, -0.2104634, 0.518, 20.92941
12.84244, -0.01387695, -0.9895562, 0.02013463, -1.763317, -0.9116829, -0.2137073, 20.88235
12.85994, -0.009482421, -1.010502, -0.008318946, -5.665756, -1.734854, -1.524683, 20.92941
12.87993, 0.0007714853, -1.003447, -0.03311297, -5.391366, -1.064122, -0.2137073, 20.88235
12.89993, -0.001914062, -1.027043, -0.01154503, -4.171854, -1.460464, 0.4265366, 20.78824
12.91993, 0.008339845, -1.037544, -0.01055828, -5.299903, -0.1494877, 3.444829, 20.88235
12.93993, -0.004843749, -1.009536, -0.04719539, -2.434049, 0.2773415, 2.835073, 20.88235
12.95993, -0.008017577, -1.029025, -0.03336985, 1.712293, -1.551927, 1.859464, 20.88235
12.97993, -0.004111327, -0.983725, -0.02845901, 3.96839, -2.527537, 1.615561, 20.92941
13.01451, 0.0007714853, -0.9827228, 0.02083519, 0.004975557, -2.832415, -0.6405365, 20.88235
13.02888, -0.01900391, -0.994173, -0.01077183, -2.190146, -2.466561, -1.890537, 20.88235
13.04282, -0.01167969, -1.004658, -0.01343571, -1.153561, -2.192171, -2.195415, 20.88235
13.05993, -0.01949219, -1.023904, -0.009272575, 0.248878, -1.64339, -2.103951, 20.83529
13.07993, -0.02022461, -0.9939527, -0.01610723, 0.5232683, -2.100707, -1.036878, 20.83529
13.09993, -0.02168945, -0.9876025, -0.01342042, 0.1879025, -1.856805, -0.6710244, 20.74118
13.11993, -0.003134765, -0.9834674, -0.008022562, 0.4927805, -2.588512, -1.70761, 20.83529
13.13993, -0.008017577, -0.9924799, -0.006126791, 1.376927, -2.405585, -1.646634, 20.88235
13.15993, -0.009970702, -0.9912763, 0.01403621, -0.9096586, -0.3933902, -0.7929757, 20.88235
13.17993, -0.002158202, -0.9854162, 0.01427652, -3.348683, 0.7346586, 1.310683, 20.88235
13.21464, -0.01680664, -1.00247, -0.02826457, -2.190146, -0.05802441, -1.219805, 20.83529
13.2291, -0.01705078, -1.019025, -0.02267227, 0.7671707, -1.09461, -2.835659, 20.97647
13.24298, -0.0165625, -1.017336, -0.03532808, 4.39522, -1.308024, -2.073463, 20.83529
13.25993, 0.005410157, -0.9795837, -0.02139549, 8.14522, -1.125098, -0.6100488, 20.83529
13.27993, -0.0177832, -0.9729944, -0.03895195, 14.39522, -1.521439, -1.128341, 20.88235
13.29993, -0.008505858, -0.983711, -0.004702717, 18.05376, -6.490952, -2.103951, 20.83529
13.31993, -0.006308593, -0.989806, 0.0001979321, 18.4501, -7.405586, -3.567366, 20.92941
13.33994, -0.005820312, -0.9902246, 0.03223078, 15.85863, -6.064122, -2.408829, 20.83529
13.35993, 0.009560548, -0.9922363, 0.06819154, 6.986683, -1.399488, 1.005805, 20.74118
13.37993, -0.002402343, -1.017069, 0.03951932, 1.89522, 2.259049, 2.621659, 20.83529
13.41476, 0.004433595, -1.027325, 0.03361407, -1.702342, 3.204171, 4.481415, 20.83529
13.42911, 0.01078125, -1.022444, 0.03806467, -5.238927, 3.996854, 4.694829, 20.78824
13.44295, 0.008339845, -1.023396, 0.02546622, -6.824292, 4.484659, 4.359464, 20.88235
13.45993, -0.006796874, -1.025846, -0.00125289, -5.025513, 2.899293, 2.682634, 20.88235
13.47993, 0.005654298, -1.014138, -0.08503919, 10.24888, -0.1494877, 0.03019512, 20.78824
13.49993, 0.01615234, -1.003201, -0.1105516, 34.36473, 1.161488, 0.1826341, 20.88235
13.51993, -0.01338867, -0.9975927, -0.05914554, 55.64522, 0.8566098, -1.00639, 20.88235
13.53993, -0.02022461, -1.043121, 0.05402757, 63.08424, 5.673683, -3.628341, 20.78824
13.55993, -0.02022461, -1.008075, 0.08201962, 59.12083, 5.917585, 2.347268, 20.78824
13.57993, -0.05464844, -0.9749255, 0.04485345, 66.52936, 4.941976, -1.036878, 20.92941
13.61498, -0.01583008, -0.9667438, -0.03836299, 110.0355, 24.14929, 5.24361, 20.88235
13.62954, 0.06522461, -0.9166364, -0.006480157, 141.5294, 26.16149, 15.21312, 20.83529
13.6434, 0.111123, -0.9216571, 0.03709939, 183.9684, 22.86881, 17.28629, 20.83529
13.65993, -0.02266602, -0.9939771, 0.07453738, 221.0721, 0.4602683, 16.2802, 20.92941
13.67993, -0.03414062, -0.9267878, 0.2109357, 248.694, -26.30803, 13.29239, 20.92941
13.69993, -0.09200195, -0.8334381, 0.2418837, 266.8343, -42.46656, 1.49361, 20.88235
13.71993, -0.04439453, -0.7014563, 0.3631957, 276.7123, -58.96047, 3.018, 20.88235
13.73993, 0.09989258, -0.5599908, 0.5284803, 264.0294, -27.77144, 23.56678, 20.88235
13.75993, 0.07157227, -0.5458515, 0.7034174, 209.1208, 11.77124, 41.46312, 20.88235
13.77993, -0.1195898, -0.5822955, 0.876384, 193.9379, -4.661683, 21.0058, 20.88235
13.81507, 0.03421875, -0.5168958, 0.7966628, 216.7733, -28.10681, 24.29849, 20.78824
13.82956, 0.02933594, -0.4898596, 0.9452969, 200.5842, -17.46656, 33.59727, 20.88235
13.8434, 0.02225586, -0.4279852, 1.028882, 173.0842, -12.89339, 46.21922, 20.97647
13.85993, 0.004433595, -0.382453, 1.121251, 130.0659, -7.771439, 45.45703, 20.92941
13.87993, -0.0880957, -0.4216351, 1.164924, 76.01108, 1.771244, 32.92654, 20.83529
13.89993, -0.0778418, -0.4472119, 1.111992, 48.17571, -0.08851218, 17.86556, 20.92941
13.91993, -0.04292969, -0.4019275, 0.9518497, 33.63303, 2.502951, 9.725317, 20.92941
13.93993, 0.02640625, -0.3946173, 0.7266529, 40.37083, 13.631, 6.066781, 20.92941
13.95993, -0.0321875, -0.311814, 0.6730826, 56.77327, 22.65539, 4.146049, 20.92941
13.97993, -0.0165625, -0.3032861, 0.5988441, 86.55986, 39.21027, 10.7619, 20.83529
14.01523, -0.07076172, -0.4423737, 0.9048809, 179.3342, -6.033634, -1.311268, 20.88235
14.02987, -0.1093359, -0.3152649, 1.044208, 185.6452, -11.46047, -1.585659, 20.83529
14.04375, -0.02901367, -0.1328058, 1.033226, 169.6391, 1.83222, 7.74361, 20.92941
14.05994, -0.0778418, -0.03904175, 1.007428, 131.9867, 28.53954, 13.2619, 20.92941
14.07994, -0.1115332, -0.02225037, 1.171507, 91.37693, 27.71637, 19.5119, 20.97647
14.09993, -0.1588965, -0.0376001, 1.179481, 34.1818, 12.47246, 16.40215, 20.97647
14.11993, -0.1630469, -0.106283, 1.22667, 5.889122, -8.686073, 4.237512, 20.92941
14.13993, -0.1105566, -0.187384, 1.144133, 15.09644, -27.1312, -2.073463, 20.74118
14.15993, -0.1142187, -0.08436768, 1.126868, 6.559854, -24.8751, -0.6100488, 20.92941
14.17993, -0.1100684, -0.07581848, 1.109901, -11.24503, -15.21046, -0.6710244, 20.97647
14.21552, -0.04537109, -0.09825806, 0.9796175, -29.96454, 5.063927, 1.158244, 20.88235
14.23, -0.06099609, -0.09020569, 0.9636291, -36.45844, 3.08222, 3.200927, 20.88235
14.24388, -0.05293945, -0.1152789, 0.9221117, -40.17795, 1.801732, -2.53078, 20.88235
14.25993, -0.05953125, -0.1717657, 0.9099697, -41.03161, -19.26534, -10.12225, 20.92941
14.27993, -0.05586914, -0.1773816, 0.8257665, -37.64746, -44.02144, -17.01249, 20.78824
14.29993, -0.01290039, -0.1878467, 0.7129873, -21.09259, -45.27144, -19.96981, 20.78824
14.31993, -0.01460937, -0.1533038, 0.706706, 12.84034, -24.32632, -2.927122, 20.88235
14.33993, -0.06856445, -0.130849, 0.9504608, 27.07815, -1.338512, -1.555171, 20.88235
14.35993, -0.121543, -0.08825989, 0.9879578, 21.46839, 16.71027, 0.9753171, 20.97647
14.37993, -0.07125, -0.1103888, 0.9403394, 12.80985, 16.52734, -0.06126827, 20.92941
14.41562, 0.01517578, -0.1291656, 0.7880075, 16.62083, 7.563927, -11.52468, 20.88235
14.43005, -0.00899414, -0.1472266, 0.8936518, 17.62693, -23.10681, -11.12834, 20.83529
14.44391, -0.05171875, -0.102868, 0.9599759, 12.65742, -42.86291, -11.982, 20.83529
14.45993, -0.05269531, -0.09147217, 0.9847406, 1.620829, -39.53974, -5.975903, 20.88235
14.47993, -0.05806641, -0.02663574, 0.9884601, -18.28771, -6.338512, -0.5185853, 20.88235
14.49993, 0.001503907, -0.06293335, 0.9399021, -22.03771, 17.68588, 4.024097, 20.78824
14.51993, 0.002236329, -0.07872681, 0.9293995, -0.4218536, 44.05783, 22.59117, 20.88235
14.53993, 0.008095704, -0.1817578, 0.9570284, 24.85254, 46.74076, 26.5241, 20.92941
14.55993, 0.05130859, -0.191535, 1.020353, 37.16961, 28.57003, 22.40824, 20.83529
14.57993, -0.161582, -0.1116687, 1.169686, 55.24888, 29.21027, 8.658244, 20.88235
14.61578, -0.07271484, -0.08243713, 1.001919, 104.4867, 47.65539, -0.4880976, 20.83529
14.63019, -0.0934668, 0.004976806, 0.9204256, 112.4745, 72.89929, 6.066781, 20.88235
14.64404, -0.02217773, 0.09026062, 0.9616199, 115.3099, 89.881, 9.969219, 20.97647
14.65994, -0.05708984, 0.124093, 1.158662, 92.77937, 78.02124, 2.560683, 20.88235
14.67993, -0.777793, 0.136875, 1.458399, -94.29381, 14.82002, -37.10395, 20.88235
14.69993, -0.2392187, -0.09821106, 1.024772, -98.68405, -27.03973, -39.90883, 20.88235
14.71993, -0.0724707, -0.07167602, 0.8886242, -38.53161, -43.50315, -22.59176, 20.88235
14.73993, -0.107627, -0.136723, 0.9766598, 5.187902, -23.41168, 0.2131219, 20.92941
14.75993, -0.09224609, 0.06272095, 0.783838, 27.2001, 14.85051, 21.67654, 20.83529
14.77993, -0.05367188, -0.05221558, 0.8029862, 58.87693, 17.89929, 31.00581, 20.97647
14.81595, -0.2614355, -0.01690735, 1.123325, -1.946244, -15.63729, -6.829561, 20.97647
14.83043, -0.03926758, 0.0425354, 1.052607, -6.001122, -29.75315, -5.701512, 20.88235
14.84436, -0.1254492, 0.001381836, 1.033844, -9.476731, -34.75315, -3.079561, 20.97647
14.85993, -0.07735352, 0.001397095, 0.9410547, -7.799902, -31.6129, 0.6399512, 20.83529
14.87993, -0.08614258, -0.002060547, 0.9849534, -6.427952, -20.60681, 5.853366, 20.88235
14.89993, -0.1061621, 0.01573975, 0.9746773, -4.232829, -14.1129, 8.902146, 20.83529
14.91993, -0.07857422, 0.02377686, 0.9751758, -3.714537, -14.81412, 7.713122, 20.83529
14.93993, -0.08711914, 0.01889221, 1.012686, -11.15356, -29.6312, -0.0002926588, 20.83529
14.95993, -0.08150391, -0.06793823, 1.00825, -2.647464, 14.48466, 6.920439, 20.92941
14.97993, -0.01119141, -0.01227295, 1.014864, -0.2999024, 4.17978, 9.420439, 21.02353
15.01622, -0.1349707, -0.04030212, 1.002771, 2.383024, 2.137098, 0.365561, 20.92941
