time,acc_x,acc_y,acc_z,gyro_x,gyro_y,gyro_z,temp
0.0, -0.0004492178, 0.03448547, 1.006651, -0.08648777, 0.06392682, 0.06068292, 21.68236
0.019942, 0.003212892, 0.03325866, 0.9969093, -0.08648777, 0.09441471, 0.03019512, 21.68236
0.03993, -0.0006933585, 0.0318048, 1.004656, -0.1779512, 0.1249025, -0.06126827, 21.77647
0.05993, 0.003457032, 0.03034973, 0.9976355, 0.096439, 0.06392682, 0.1826341, 21.68236
0.07992801, 0.005166017, 0.03401367, 1.003474, -0.02551222, -0.271439, 0.1216585, 21.77647
0.099926, 0.001015626, 0.03276611, 1.002933, 0.004975557, -0.05802441, 0.1216585, 21.72941
0.119925, 0.001992188, 0.02352234, 1.00131, 0.1269268, -0.08851218, 0.09117073, 21.68236
0.13993, 0.00248047, 0.02913208, 0.9973824, -0.02551222, -0.119, 0.09117073, 21.63529
0.159925, -0.003623046, 0.03205139, 1.001092, -0.1779512, 0.1858781, 0.03019512, 21.63529
0.179929, 0.004921876, 0.03108093, 1.002976, -0.08648777, 0.06392682, 0.1216585, 21.72941
0.200137, 0.00663086, 0.02937744, 0.9986591, 0.03546345, -0.119, 0.06068292, 21.68236
0.219948, 0.002968751, 0.03156128, 1.002984, 0.06595123, 0.002951264, 0.06068292, 21.63529
0.239928, 0.00272461, 0.03204773, 0.9995796, -0.1474634, -0.1494877, -0.3051707, 21.63529
0.259926, -0.0009374991, 0.03034424, 1.001034, -0.1169757, 0.002951264, 0.09117073, 21.68236
0.27993, 0.004677735, 0.03034546, 0.9951622, 0.3403414, 0.06392682, 0.1216585, 21.63529
0.299926, 0.003212892, 0.02522705, 0.9969183, 0.2793658, 0.002951264, 0.1216585, 21.77647
0.319933, -0.0006933585, 0.02888428, 0.9925263, 0.1879025, -0.2104634, -0.0002926588, 21.68236
0.339931, 0.0007714853, 0.02693237, 1.00369, 0.248878, -0.2104634, -0.1222439, 21.68236
0.359935, -0.003867187, 0.03666809, 0.9975704, 0.3098537, -0.1494877, -0.0002926588, 21.68236
0.379924, 0.005410157, 0.02986511, 1.005176, 0.096439, 0.002951264, -0.0002926588, 21.72941
0.399966, 0.004189454, 0.03229614, 0.9959137, 0.1574147, -0.02753651, 0.2436098, 21.68236
0.419939, -0.005820312, 0.03010437, 0.9896017, 0.3708293, -0.5763171, 0.06068292, 21.63529
0.439927, 0.004433595, 0.03180847, 1.019414, 0.3403414, -0.1494877, 0.03019512, 21.72941
0.459928, 0.007119142, 0.02959778, 1.002036, 0.3403414, -0.1494877, 0.06068292, 21.72941
0.479928, -0.002158202, 0.0298529, 0.9951775, -0.08648777, 0.4907561, 0.06068292, 21.63529
0.499931, -0.01265625, 0.03400207, 0.9839432, -0.4218536, 1.313927, 0.1216585, 21.63529
0.519933, -0.003867187, 0.02814087, 1.037004, -0.08648777, 0.6127074, 0.06068292, 21.72941
0.539925, 0.01004883, 0.03278625, 0.9837029, -0.4828293, 0.7041708, -0.06126827, 21.68236
0.559927, 0.005410157, 0.03595703, 1.002254, -0.02551222, 0.1858781, -0.06126827, 21.63529
0.579933, 0.002968751, 0.03423828, 0.9976698, -0.3913659, 0.09441471, 0.1826341, 21.68236
0.599983, 0.003212892, 0.02741272, 1.003224, -0.4828293, 0.5517318, 0.1216585, 21.72941
0.619942, -0.01070312, 0.03301452, 1.000537, -0.3608781, 0.3383171, -0.06126827, 21.87059
0.639934, 0.0005273447, 0.03278381, 1.003258, 0.004975557, -0.08851218, 0.1216585, 21.68236
0.65993, 0.002236329, 0.03156738, 0.9958997, 0.248878, -0.1799756, -0.03078049, 21.72941
0.679933, -0.00118164, 0.03620361, 1.000241, -0.1779512, -0.119, -0.1527317, 21.82353
0.6999269, -0.002402343, 0.02496887, 0.9978414, 0.004975557, -0.05802441, 0.06068292, 21.63529
0.719924, 0.003945313, 0.03034241, 1.002038, -0.05599999, -0.05802441, 0.1521463, 21.63529
0.739926, 0.0005273447, 0.03497437, 1.001778, -0.1474634, 0.002951264, 0.06068292, 21.63529
0.75993, -0.0002050772, 0.02863647, 1.001048, -0.05599999, 0.1553903, 0.09117073, 21.63529
0.779925, 0.001503907, 0.0281366, 0.9991041, -0.05599999, 0.03343904, -0.09175611, 21.72941
0.800052, -0.00142578, 0.03278687, 0.9939517, 0.096439, 0.09441471, -0.06126827, 21.77647
0.8199409, 0.002236329, 0.03082336, 1.00374, -0.1779512, -0.05802441, 0.06068292, 21.72941
0.8399321, 0.003457032, 0.02765014, 0.9997893, -0.05599999, 0.06392682, -0.1222439, 21.72941
0.859929, 0.001992188, 0.02715759, 1.003495, 0.1574147, -0.3324146, -0.0002926588, 21.68236
0.879928, 0.001748048, 0.02571045, 0.995746, -0.1474634, 0.002951264, -0.0002926588, 21.72941
0.899931, 0.004433595, 0.03473511, 0.9934264, 0.03546345, 0.002951264, 0.09117073, 21.63529
0.919926, 3.906339e-05, 0.03205383, 1.001473, -0.02551222, 0.1249025, 0.2436098, 21.68236
0.939924, 0.005654298, 0.02743042, 0.9993279, 0.1269268, 0.3383171, -0.0002926588, 21.77647
0.959929, 0.00272461, 0.02985718, 1.004225, -0.1474634, 0.1553903, -0.09175611, 21.63529
0.97993, 0.004433595, 0.0310675, 0.9851753, 0.1269268, 0.1553903, -0.03078049, 21.63529
1.000116, 0.004189454, 0.03033875, 0.9961731, 0.03546345, 0.03343904, -0.1527317, 21.77647
1.019944, 0.003945313, 0.0342572, 1.000844, -0.05599999, -0.08851218, -0.03078049, 21.72941
1.039936, 0.002968751, 0.0369458, 0.9941779, -0.08648777, -0.1494877, 0.1826341, 21.72941
1.059928, -0.00508789, 0.03106873, 0.9900722, 0.1879025, 0.2773415, -0.06126827, 21.63529
1.079926, 0.006142579, 0.03106995, 0.9961056, -0.02551222, 0.2163659, 0.1826341, 21.63529
1.09993, -0.00118164, 0.03522644, 1.000568, -0.1474634, 0.4297805, -0.06126827, 21.63529
1.119929, -0.00118164, 0.03497925, 1.003729, -0.05599999, 0.3078293, -0.06126827, 21.68236
1.139929, 0.003701173, 0.03351196, 0.9951941, -0.1779512, -0.2409512, -0.09175611, 21.68236
1.159928, -0.002158202, 0.03618286, 1.001045, 0.2183902, -0.08851218, -0.0002926588, 21.68236
1.179927, -0.0004492178, 0.02865417, 0.9981085, -0.1169757, 0.09441471, 0.03019512, 21.68236
1.2041, 0.000283204, 0.03400207, 1.001022, -0.08648777, 0.09441471, 0.1521463, 21.68236
1.219939, 0.001015626, 0.0327771, 0.9991104, 0.004975557, 0.2163659, 0.03019512, 21.72941
1.239932, 0.005898438, 0.03449646, 1.002509, 0.06595123, 0.2163659, 0.1216585, 21.63529
1.259927, 0.001748048, 0.03302612, 0.9969145, 0.03546345, 0.06392682, -0.03078049, 21.72941
1.279931, 0.002236329, 0.03204651, 0.9993292, -0.02551222, 0.1553903, 0.03019512, 21.63529
1.299925, -0.0004492178, 0.02791138, 0.9986044, -0.02551222, -0.02753651, -0.0002926588, 21.72941
1.31993, -0.001669921, 0.0335144, 1.014916, 0.1269268, 0.002951264, -0.1527317, 21.77647
1.339932, 0.00248047, 0.02814514, 1.005406, -0.1169757, 0.09441471, -0.06126827, 21.58823
1.35993, 0.0005273447, 0.02619385, 0.9910169, 0.03546345, 0.1858781, 0.03019512, 21.72941
1.379929, 0.003457032, 0.03156372, 1.003697, 0.004975557, -0.08851218, -0.06126827, 21.68236
1.404312, -0.004843749, 0.0308252, 0.9995975, -0.2389269, 0.002951264, 0.1216585, 21.72941
1.419942, -0.00118164, 0.0252124, 1.000312, 0.2793658, 0.06392682, -0.1832195, 21.68236
1.439936, 0.005166017, 0.02863098, 1.003, -0.05599999, -0.02753651, 0.09117073, 21.77647
1.45993, 0.001748048, 0.03180664, 1.000538, 0.03546345, 0.06392682, -0.03078049, 21.63529
1.479927, 0.001748048, 0.03034424, 1.004439, -0.02551222, 0.1249025, 0.06068292, 21.72941
1.499929, 0.00248047, 0.0320575, 0.9903252, 0.004975557, 0.1249025, 0.2131219, 21.72941
1.519924, -0.00508789, 0.02936096, 0.9959251, 0.004975557, -0.02753651, -0.1527317, 21.63529
1.539933, 0.003945313, 0.03350586, 1.005932, -0.05599999, -0.05802441, -0.1527317, 21.72941
1.559928, -0.0009374991, 0.0298468, 0.9925238, -0.05599999, -0.1494877, -0.06126827, 21.63529
1.579929, -0.0002050772, 0.03374939, 1.000321, 0.06595123, -0.119, 0.2131219, 21.63529
1.60447, -0.002646483, 0.03473755, 1.011715, 0.1269268, 0.002951264, -0.1527317, 21.72941
1.619936, 0.004677735, 0.03106323, 1.000537, 0.004975557, -0.05802441, 0.1521463, 21.77647
1.639929, 0.001259767, 0.02863953, 0.999113, 0.096439, 0.06392682, 0.1216585, 21.68236
1.659926, 3.906339e-05, 0.02667664, 1.002233, -0.02551222, 0.1249025, 0.06068292, 21.68236
1.679932, -0.002646483, 0.03009399, 1.015425, 0.1269268, -0.119, -0.1222439, 21.68236
1.699924, 0.003457032, 0.03497863, 0.992483, 0.3403414, 0.03343904, 0.1216585, 21.68236
1.719925, -0.001914062, 0.03693359, 0.9990569, 0.4927805, -0.2104634, 0.2436098, 21.68236
1.739927, -0.004355468, 0.03131531, 0.9971217, 0.5232683, -0.05802441, 0.1826341, 21.72941
1.759925, 0.001503907, 0.03498047, 1.002952, 0.2183902, 0.2773415, -0.03078049, 21.63529
1.779931, -0.0002050772, 0.03424377, 0.9944514, 0.1574147, -0.05802441, 0.1521463, 21.72941
1.804703, 0.0005273447, 0.03278625, 0.9976227, 0.5232683, -0.4543658, 0.06068292, 21.68236
1.819933, 0.0005273447, 0.02936707, 0.9873305, 0.5232683, -0.2409512, -0.06126827, 21.82353
1.839934, -0.00118164, 0.03204712, 1.006685, 0.4622927, -0.05802441, -0.06126827, 21.72941
1.859928, 0.003212892, 0.03156799, 1.004709, 0.2793658, 0.03343904, 0.1521463, 21.72941
1.879928, 0.004677735, 0.03302307, 0.9951545, 0.3098537, 0.09441471, -0.1832195, 21.63529
1.899928, 0.003945313, 0.03497986, 0.9978821, 0.06595123, -0.05802441, -0.1222439, 21.72941
1.919928, -0.001914062, 0.03473449, 0.9922848, 0.06595123, -0.05802441, 0.06068292, 21.68236
1.939926, -0.00118164, 0.03473938, 0.9961375, 0.2183902, -0.2104634, 0.3960488, 21.72941
1.959928, 0.004921876, 0.03155945, 0.9915294, 0.004975557, 0.002951264, -0.1222439, 21.72941
1.979934, -0.004111327, 0.03058472, 1.001319, 0.03546345, 0.06392682, -0.1832195, 21.68236
2.004868, 0.003945313, 0.0357074, 1.006675, -0.208439, -0.02753651, -0.1222439, 21.82353
2.019943, 0.001992188, 0.02960388, 0.9976138, -0.208439, 0.1249025, -0.1832195, 21.63529
2.039933, 0.001503907, 0.03009277, 1.001495, -0.3608781, 0.2773415, -0.1832195, 21.72941
2.05993, -0.003867187, 0.03694702, 0.9969209, -0.5438049, 0.09441471, -0.8234634, 21.63529
2.079927, 0.005898438, 0.03497437, 1.003239, 0.1574147, 0.03343904, -0.3661463, 21.72941
2.099931, 0.006875001, 0.03227966, 0.9993292, -0.6657561, 0.1249025, -0.274683, 21.72941
2.119932, 0.006875001, 0.02789368, 1.002021, 0.004975557, 0.002951264, -0.0002926588, 21.72941
2.139923, 0.001503907, 0.03278198, 1.003247, -0.3303902, 0.03343904, 0.2131219, 21.72941
2.159925, 0.003212892, 0.02643799, 1.005677, -0.05599999, 0.03343904, -0.1527317, 21.72941
2.179929, 0.004921876, 0.03375366, 1.008106, -0.1474634, 0.3383171, 0.1521463, 21.72941
2.204923, 0.004189454, 0.03278137, 1.00032, -0.7267318, 0.3992927, -0.06126827, 21.63529
2.219938, 0.001015626, 0.03083008, 0.9946765, -0.6657561, 0.002951264, 0.03019512, 21.68236
2.239932, -0.00118164, 0.02985657, 0.9980945, -0.3303902, 0.1858781, 0.03019512, 21.68236
2.259927, 0.005654298, 0.03425354, 0.9885742, -0.02551222, 0.1553903, 0.3045854, 21.68236
2.279926, -0.003378905, 0.03156189, 1.00173, -0.2999024, 0.03343904, -0.1222439, 21.63529
2.299931, 0.006142579, 0.02936584, 1.000527, -0.3913659, 0.03343904, -0.1222439, 21.72941
2.319931, -0.00118164, 0.03325623, 0.9986273, -0.4218536, 0.09441471, 0.2131219, 21.72941
2.339928, 0.001503907, 0.02839661, 0.9966092, -0.1474634, -0.02753651, -0.0002926588, 21.72941
2.35993, 0.0005273447, 0.0276654, 1.000036, -0.08648777, 0.09441471, 0.1826341, 21.63529
2.379931, 0.001015626, 0.0286322, 0.9985929, 0.096439, -0.2104634, -0.0002926588, 21.68236
2.405269, -0.001669921, 0.02570129, 0.9961706, -0.08648777, -0.3629024, -0.1222439, 21.72941
2.419948, 0.002236329, 0.02961487, 0.9953986, -0.1169757, -0.1494877, -0.1832195, 21.68236
2.439926, 0.001015626, 0.02279358, 0.998598, -0.208439, 0.002951264, -0.0002926588, 21.68236
2.45993, -0.00118164, 0.03156433, 1.000079, -0.1779512, -0.1799756, -0.1832195, 21.68236
2.479926, -0.0004492178, 0.02643982, 0.9968686, -0.1169757, -0.02753651, -0.03078049, 21.68236
2.499924, 0.000283204, 0.03034851, 0.9983895, -0.05599999, -0.02753651, 0.06068292, 21.77647
2.519928, -0.001914062, 0.03377014, 1.00076, 0.03546345, 0.002951264, 0.06068292, 21.72941
2.539926, 0.003945313, 0.03131226, 1.004199, -0.05599999, -0.08851218, 0.09117073, 21.72941
2.559932, 0.01322266, 0.03571716, 1.000573, 0.03546345, -0.119, 0.06068292, 21.68236
2.57993, 0.004921876, 0.02594055, 0.9998365, 0.096439, -0.08851218, -0.1222439, 21.68236
2.605367, 0.00638672, 0.02961426, 1.007872, 0.096439, 0.06392682, 0.03019512, 21.68236
2.619944, 0.008339845, 0.02400391, 0.9975666, -0.1169757, 0.09441471, 0.03019512, 21.68236
2.639931, 0.004433595, 0.04058655, 1.001032, 0.03546345, -0.119, -0.06126827, 21.72941
2.659926, 0.003212892, 0.03351624, 1.003182, -0.08648777, 0.1553903, -0.06126827, 21.77647
2.67993, 0.000283204, 0.03350647, 0.998612, -0.02551222, -0.05802441, 0.1521463, 21.72941
2.699927, 0.006875001, 0.03572021, 0.9903367, -0.08648777, 0.2163659, 0.1216585, 21.72941
2.719928, 0.006142579, 0.03081238, 0.995681, -0.1474634, 0.03343904, -0.03078049, 21.68236
2.739927, -0.002158202, 0.0337622, 0.9976355, -0.1474634, -0.08851218, 0.1216585, 21.77647
2.759927, 0.005898438, 0.02546753, 1.000784, 0.004975557, 0.2468537, 0.2740976, 21.68236
2.779926, 0.004677735, 0.02839844, 1.005389, -0.1474634, 0.1249025, -0.03078049, 21.68236
2.805538, 0.00272461, 0.03107361, 1.000057, -0.2389269, 0.2163659, -0.0002926588, 21.63529
2.819936, 0.004677735, 0.03132446, 0.9985559, -0.208439, -0.119, -0.03078049, 21.82353
2.83994, 0.004677735, 0.02766235, 0.9951444, -0.08648777, 0.1858781, 0.03019512, 21.63529
2.859925, -0.003134765, 0.02741028, 1.010538, -0.1779512, 0.09441471, 0.1521463, 21.72941
2.87993, 0.002236329, 0.03277466, 1.001984, -0.1779512, 0.002951264, 0.1521463, 21.72941
2.899934, 0.002236329, 0.02912048, 1.015383, 0.2183902, 0.03343904, 0.1521463, 21.63529
2.919928, -0.007773437, 0.02960754, 0.9908046, 0.004975557, 0.1858781, 0.06068292, 21.72941
2.93993, 0.002236329, 0.03083191, 0.990081, -0.02551222, -0.05802441, 0.2436098, 21.72941
2.959932, -0.003378905, 0.03036133, 0.999549, -0.1169757, -0.3324146, -0.09175611, 21.72941
2.979924, -0.004111327, 0.02447327, 1.000283, 0.06595123, -0.02753651, 0.03019512, 21.72941
3.005718, 0.009316407, 0.02763794, 1.005219, -0.2694147, -0.05802441, 0.1216585, 21.77647
3.019936, 0.005898438, 0.03743408, 0.99127, -0.1779512, -0.05802441, 0.06068292, 21.68236
3.039929, 0.005654298, 0.03277954, 0.9944221, -0.02551222, -0.02753651, 0.2740976, 21.68236
3.059926, 3.906339e-05, 0.03230164, 1.004496, 0.03546345, 0.03343904, 0.03019512, 21.72941
3.079929, -0.003378905, 0.02522766, 1.002948, 0.004975557, 0.06392682, 0.06068292, 21.72941
3.099929, 0.0005273447, 0.02912292, 1.009129, -0.05599999, 0.09441471, 0.03019512, 21.72941
3.119926, 0.001992188, 0.02984436, 0.9983641, 0.1269268, -0.1799756, 0.03019512, 21.72941
3.139922, 0.005410157, 0.03155823, 1.003973, -0.208439, 0.06392682, 0.09117073, 21.72941
3.159926, -0.002646483, 0.02865051, 1.003973, -0.02551222, 0.03343904, -0.0002926588, 21.63529
3.179928, 0.004921876, 0.03229248, 0.9942506, 0.03546345, -0.05802441, -0.09175611, 21.72941
3.205937, -0.001914062, 0.03424927, 1.002308, 0.1269268, 0.1858781, 0.06068292, 21.72941
3.219943, 0.001259767, 0.02889832, 0.9976303, 0.1574147, -0.1494877, -0.0002926588, 21.77647
3.239931, 0.005654298, 0.0320459, 1.000035, 0.03546345, -0.119, -0.0002926588, 21.68236
3.259932, 0.00248047, 0.02642578, 0.9922682, 0.1574147, 0.06392682, 0.1826341, 21.68236
3.279926, 0.00272461, 0.02669006, 1.002954, -0.05599999, 0.06392682, 0.09117073, 21.68236
3.299932, -0.0002050772, 0.03205811, 1.00128, 0.2793658, 0.1858781, 0.06068292, 21.68236
3.319926, 0.000283204, 0.02644104, 0.9949015, -0.08648777, 0.06392682, 0.09117073, 21.68236
3.339922, 0.009560548, 0.03033875, 0.999099, 0.096439, 0.1553903, 0.1216585, 21.68236
3.359928, 0.005654298, 0.03180176, 0.9920177, -0.1169757, 0.002951264, 0.06068292, 21.68236
3.37993, -0.003378905, 0.0261853, 1.000543, -0.02551222, 0.1858781, -0.0002926588, 21.63529
3.406084, 0.005898438, 0.02765381, 0.9988434, -0.05599999, 0.1553903, 0.09117073, 21.68236
3.419985, 0.007119142, 0.0301062, 0.9978694, -0.1474634, 0.1249025, 0.2131219, 21.68236
3.439934, 0.000283204, 0.03228089, 0.9983156, 0.004975557, -0.08851218, 0.1216585, 21.68236
3.459928, 0.001503907, 0.02571533, 0.9961145, -0.1169757, 0.06392682, 0.06068292, 21.63529
3.47993, -0.002402343, 0.03108398, 1.002466, 0.004975557, -0.05802441, -0.1222439, 21.68236
3.499926, 0.000283204, 0.02863464, 1.004681, -0.05599999, -0.08851218, 0.03019512, 21.68236
3.519927, 0.005166017, 0.02643311, 0.9905057, -0.1474634, 0.03343904, -0.0002926588, 21.63529
3.539924, 0.002968751, 0.03011353, 0.9973607, -0.208439, 0.1553903, -0.0002926588, 21.68236
3.559929, 0.002236329, 0.02595825, 0.9883836, 0.03546345, 0.2163659, 0.2131219, 21.68236
3.579933, 0.001748048, 0.03009094, 1.002031, 0.1574147, 0.1858781, 0.09117073, 21.68236
3.606199, 0.001015626, 0.02888367, 0.9978732, 0.03546345, -0.119, -0.0002926588, 21.68236
3.620099, 0.001259767, 0.03229004, 0.9939529, -0.02551222, -0.2104634, -0.0002926588, 21.68236
3.639932, 3.906339e-05, 0.02911987, 0.9990569, -0.08648777, 0.002951264, -0.1527317, 21.82353
3.659932, 0.01029297, 0.02912842, 0.992998, 0.004975557, -0.02753651, 0.1216585, 21.72941
3.679922, 0.000283204, 0.02692322, 1.000802, 0.1269268, -0.119, 0.1521463, 21.82353
3.699926, 0.005410157, 0.02912659, 1.00403, 0.2183902, -0.02753651, 0.1521463, 21.63529
3.71993, 0.001259767, 0.03425171, 0.9878851, -0.08648777, 0.1858781, -0.1222439, 21.72941
3.739927, 0.007607423, 0.03203613, 0.9942608, 0.004975557, -0.2104634, 0.03019512, 21.72941
3.759929, 0.007851563, 0.03106995, 1.002498, 0.096439, -0.08851218, 0.1826341, 21.72941
3.779927, 0.003945313, 0.02766479, 1.006393, -0.1169757, 0.002951264, -0.06126827, 21.72941
3.806359, 0.00272461, 0.03156555, 0.9969234, -0.1169757, 0.09441471, -0.03078049, 21.68236
3.820392, -0.004355468, 0.02984253, 1.002729, 0.004975557, 0.09441471, -0.0002926588, 21.77647
3.839938, 0.001259767, 0.03351624, 1.005197, -0.1779512, 0.06392682, -0.09175611, 21.77647
3.859926, 0.000283204, 0.02546326, 1.008273, -0.1169757, -0.119, -0.0002926588, 21.72941
3.879931, 0.000283204, 0.03595215, 1.004241, 0.03546345, 0.1249025, 0.06068292, 21.72941
3.899934, 0.009072267, 0.03375854, 1.004218, 0.004975557, -0.3324146, 0.1216585, 21.72941
3.919931, 0.01151367, 0.02862793, 1.000557, -0.208439, -0.3629024, -0.0002926588, 21.72941
3.939926, 0.0005273447, 0.030578, 1.001559, 0.1574147, -0.3019269, -0.03078049, 21.72941
3.959932, 0.003945313, 0.03862671, 1.001074, 0.096439, 0.002951264, -0.1222439, 21.82353
3.979924, 0.00663086, 0.02423645, 1.00306, 0.096439, 0.1858781, 0.03019512, 21.72941
4.00663, 0.001259767, 0.03619385, 1.008355, -0.08648777, -0.119, -0.06126827, 21.72941
4.020617, 0.003212892, 0.03008911, 0.9995771, 0.06595123, 0.03343904, 0.06068292, 21.72941
4.039933, 0.00272461, 0.02399353, 0.9935016, 0.004975557, -0.1494877, 0.1826341, 21.82353
4.059928, 0.004189454, 0.0332666, 1.011124, 0.096439, -0.3019269, 0.09117073, 21.77647
4.079924, 0.005898438, 0.03498108, 0.9966258, 0.004975557, -0.9421706, 0.03019512, 21.77647
4.099924, 0.002968751, 0.03253662, 0.9980931, -0.02551222, -2.89339, 0.09117073, 21.72941
4.119926, -0.02022461, 0.03595886, 1.054372, -0.1474634, -18.96046, 0.365561, 21.68236
4.139928, 0.01712891, 0.0318158, 0.9478848, 0.7366829, -13.96047, 0.2131219, 21.77647
4.15993, 0.02591797, 0.03131287, 0.9605177, -0.3608781, -6.155585, 0.2436098, 21.72941
4.179928, 0.01810547, 0.03425842, 0.9971472, -0.2389269, -3.503146, 0.2436098, 21.68236
4.206727, 0.02616211, 0.03424133, 1.003314, 0.004975557, 1.039537, 0.03019512, 21.82353
4.22068, 0.02152344, 0.03741272, 0.9876002, 0.03546345, 2.441976, 0.2740976, 21.63529
4.239934, 0.01786133, 0.03131836, 0.9988905, 0.06595123, 3.478561, 0.1216585, 21.63529
4.259928, 0.01615234, 0.03107239, 1.002091, -0.05599999, 4.637097, 0.1216585, 21.72941
4.279927, 0.01834961, 0.03033875, 1.004947, -0.208439, 3.90539, 0.1521463, 21.72941
4.29993, 0.009316407, 0.03278015, 1.000738, -0.1779512, 2.899293, 0.1216585, 21.77647
4.319927, 0.01761719, 0.02911072, 1.012875, -0.1474634, -0.3019269, -0.2441951, 21.68236
4.339927, 0.01249024, 0.03010071, 1.018083, -0.1169757, -3.16778, -0.03078049, 21.68236
4.359927, 0.01957031, 0.02644104, 0.9868907, 0.096439, -2.649488, 0.06068292, 21.68236
4.379934, 0.02225586, 0.02960144, 0.9903265, -0.02551222, -1.64339, -0.274683, 21.68236
4.406875, 0.01273438, 0.03301392, 0.9944871, -0.08648777, -1.308024, 0.2131219, 21.68236
4.420805, 0.0146875, 0.03473877, 1.010917, -0.1474634, -4.631195, 0.518, 21.77647
4.439937, 0.0007714853, 0.0371814, 1.120748, 1.437902, -27.8629, 1.707024, 21.72941
4.45993, 0.009072267, 0.0454187, 1.035755, 1.376927, -44.84461, 4.694829, 21.63529
4.479927, 0.03910156, 0.02986511, 0.9689938, -0.02551222, -39.78364, 4.633854, 21.72941
4.49993, 0.06473633, 0.02523621, 0.9820168, -0.5438049, -28.89949, 2.713122, 21.72941
4.519933, 0.03934571, 0.02351074, 1.108541, -1.336488, -56.55193, 0.9753171, 21.63529
4.539928, 0.0603418, 0.03594421, 1.047447, -1.885268, -74.08242, 2.04239, 21.63529
4.55993, 0.07352539, 0.0342511, 1.026296, -1.03161, -82.46657, 2.957025, 21.72941
4.579935, 0.1269922, 0.0393573, 1.05934, -0.5133171, -93.74705, 5.030195, 21.68236
4.607077, 0.1677637, 0.03738647, 0.9656638, -0.08648777, -95.78974, 7.164342, 21.72941
4.620976, 0.1997461, 0.04129944, 0.9181966, 0.7366829, -84.66169, 7.957025, 21.63529
4.639933, 0.227334, 0.01938782, 1.001253, 0.5232683, -84.75315, 6.249708, 21.72941
4.659933, 0.2356348, 0.03010742, 0.9809747, 0.5537561, -95.82023, 5.761903, 21.68236
4.679931, 0.263711, 0.02034851, 0.9465736, -0.1169757, -105.3019, 6.188732, 21.68236
4.69993, 0.310586, 0.02329895, 0.9175954, -0.1169757, -102.619, 5.426537, 21.63529
4.719933, 0.371377, 0.02351685, 0.9451452, -0.6047806, -102.1617, 5.182634, 21.68236
4.739924, 0.3860254, 0.01962769, 0.8825622, -0.9401464, -109.8751, 3.627756, 21.72941
4.75993, 0.440957, 0.01939636, 1.007418, -0.6962439, -127.4666, 2.377756, 21.72941
4.77993, 0.4431543, 0.02448975, 0.8378295, -1.03161, -129.7532, 2.316781, 21.72941
4.807279, 0.4868555, 0.02230774, 0.8418945, -2.220634, -129.1129, 2.011902, 21.68236
4.821163, 0.5203027, 0.01962891, 0.8125701, -2.586488, -128.3202, 1.188732, 21.63529
4.839935, 0.5620508, 0.006723632, 0.7676157, -4.049903, -123.5336, -0.732, 21.68236
4.85993, 0.619668, 0.02299805, 0.7455097, -2.129171, -116.1861, 1.371659, 21.77647
4.879927, 0.6413965, 0.01890442, 0.7370349, -0.6962439, -113.7166, 2.225317, 21.63529
4.899931, 0.6643457, 0.01497498, 0.7759127, -1.092585, -123.2288, 2.316781, 21.68236
4.91993, 0.6677637, 0.01817566, 0.7112873, -1.519415, -133.0763, 2.560683, 21.68236
4.939932, 0.7178125, 0.01282532, 0.6042483, -1.793805, -123.0458, 2.316781, 21.72941
4.959928, 0.7869043, 0.01963623, 0.5332128, -2.068195, -102.3751, 2.04239, 21.68236
4.979927, 0.8220605, 0.005498657, 0.5397486, -1.336488, -86.94827, 1.828976, 21.68236
5.007395, 0.8042382, 0.01500427, 0.6160697, 1.041561, -96.30803, 1.889951, 21.72941
5.021386, 0.7910547, 0.008888549, 0.6166229, 0.1879025, -110.3934, 1.859464, 21.72941
5.039934, 0.8213281, 0.003783569, 0.5366958, -0.2389269, -118.1373, 1.981415, 21.68236
5.059925, 0.8701562, 0.01233032, 0.4370467, -0.9096586, -110.3934, 1.828976, 21.68236
5.079931, 0.9101953, 0.009404297, 0.3706199, -1.549902, -89.35681, 1.798488, 21.72941
5.099925, 0.9199609, 0.006962891, 0.3435967, 0.03546345, -70.08852, 1.188732, 21.72941
5.11993, 0.9158105, 0.007694702, 0.4051821, 1.194, -66.39949, 0.670439, 21.72941
5.139928, 0.8887109, 0.002583618, 0.3815751, 1.529366, -70.54584, 0.518, 21.77647
5.159931, 0.9082421, 0.009872437, 0.428605, 5.248878, -86.6434, 1.127756, 21.63529
5.179929, 0.9355859, 0.00750122, 0.3297738, 11.80376, -100.18, 4.298488, 21.68236
5.207667, 0.9575585, 0.0254834, 0.2322256, 7.809854, -93.80803, 3.444829, 21.77647
5.221597, 0.9761132, 0.01599731, 0.212753, 1.072049, -83.25925, 1.402146, 21.68236
5.239937, 0.9685449, 0.00500061, 0.2306805, -0.5133171, -80.66779, 1.646049, 21.72941
5.25993, 0.96708, 0.01650574, 0.2325686, 1.254976, -88.6251, 2.072878, 21.72941
5.279931, 0.9665917, 0.006243896, 0.2225148, 1.041561, -98.99096, 1.981415, 21.72941
5.299928, 0.9707421, 0.003040771, 0.1228568, -0.1474634, -100.8507, 1.889951, 21.68236
5.31992, 0.9934472, 0.005751953, 0.05565937, -0.5438049, -89.9056, 1.646049, 21.77647
5.339928, 1.010781, 0.0003802488, 0.01158588, -0.6962439, -79.3873, 1.615561, 21.68236
5.359927, 0.9863671, 0.001127929, 0.04185295, -0.4523415, -73.6251, 1.249707, 21.68236
5.379931, 0.9939355, 0.000650024, 0.01340957, 0.7366829, -72.619, 1.432634, 21.68236
5.40795, 0.9954003, -0.001308594, -0.02894218, 2.779366, -73.92998, 1.249707, 21.72941
5.422038, 0.9924706, -0.0100824, -0.03135173, 4.242781, -77.28364, 1.188732, 21.72941
5.439936, 0.9956445, 0.05610352, -0.2565901, 1.102537, -50.97266, -2.012488, 21.63529
5.459929, 1.041299, 0.00625061, -0.1492942, -8.714537, -10.78973, 1.188732, 21.63529
5.479932, 1.011514, -0.002284546, -0.1773411, -1.519415, 13.631, -0.03078049, 21.72941
5.499928, 0.99833, -0.01634216, -0.01504783, 3.114732, 5.734659, -0.1527317, 21.54118
5.51993, 0.9907617, 0.0006463621, -0.03110504, 0.1879025, -5.301927, -0.3661463, 21.63529
5.53993, 1.001504, -0.0001037605, -0.06296896, -0.208439, -13.96047, 0.06068292, 21.72941
5.55993, 1.007852, 0.01086731, -0.1426087, -5.421854, -0.02753651, 0.9143414, 21.72941
5.579928, 1.007119, 0.005505371, -0.1514398, -9.62917, 21.19198, 0.5789756, 21.72941
5.608065, 0.987832, -0.009602661, -0.03307729, 0.1574147, 3.08222, -0.1527317, 21.63529
5.622108, 0.9973535, -0.001312256, -0.0484059, 0.096439, -0.3629024, -0.06126827, 21.63529
5.639936, 0.9997949, -0.0003399663, -0.05082819, -0.1779512, -3.564122, -0.1222439, 21.77647
5.65993, 1.005654, -0.003018799, -0.06726153, -0.1474634, -4.234854, -0.1832195, 21.63529
5.679928, 1.004189, -0.006444092, -0.0976899, -0.05599999, 0.7041708, 0.1216585, 21.77647
5.69993, 1.006631, -0.0008343505, -0.07606715, 0.06595123, 5.765146, 0.1826341, 21.72941
5.71993, 0.9980859, -0.004244996, -0.05034245, 0.4622927, 4.33222, -0.09175611, 21.63529
5.739932, 1.004678, 0.002337646, -0.04348612, 0.1879025, 0.2773415, -0.09175611, 21.72941
5.759934, 1.000772, -0.004000245, -0.07173126, -0.208439, -2.954366, 0.1521463, 21.72941
5.77993, 0.99833, -0.0008282475, -0.08151089, -0.2694147, -2.862902, 0.1521463, 21.63529
5.808273, 1.00541, -0.003286743, -0.06875314, -0.2999024, -0.7897317, 0.1521463, 21.72941
5.822318, 1.001016, 0.00331604, -0.08584934, -0.3303902, -0.05802441, 0.1521463, 21.72941
5.839933, 1.00126, -0.01009705, -0.0641374, -0.05599999, 0.1249025, -0.03078049, 21.68236
5.85993, 1.001504, -0.003500977, -0.07246368, -0.208439, 0.7956342, 0.1826341, 21.58823
5.879926, 1.00834, -0.005467529, -0.07631002, -0.4523415, 4.301732, -0.1222439, 21.68236
5.899932, 1.003213, -0.00984314, -0.0870178, -0.208439, 6.527342, -0.6405365, 21.68236
5.919928, 1.008828, 0.00309143, -0.04087067, -0.8181952, 10.42978, -0.4576097, 21.58823
5.93993, 0.9995507, -0.0156842, -0.02756529, -1.184049, 2.015146, 0.03019512, 21.68236
5.95993, 0.9910058, 0.004277344, -0.05302546, 0.1574147, -2.649488, 0.2740976, 21.68236
5.979926, 1.006875, -0.002810059, -0.0763164, -0.2694147, -1.216561, 0.03019512, 21.68236
6.008381, 1.016152, 0.002819213, -0.1329463, -0.3608781, 16.67978, -0.6405365, 21.63529
6.022396, 1.025186, -0.004969482, -0.1549948, -0.2999024, 32.47247, -0.5490732, 21.63529
6.039934, 1.026895, -9.03327e-05, -0.1353316, 0.004975557, 51.28344, -0.9759025, 21.72941
6.059927, 1.004189, -0.005463867, -0.08796506, -0.208439, 68.99685, -1.128341, 21.72941
6.079929, 1.009805, 0.002348633, -0.03240094, 0.5232683, 77.59441, -1.402732, 21.72941
6.09993, 0.9975976, 0.006740112, 0.02326895, 0.8281464, 79.3932, -1.494195, 21.63529
6.119931, 0.9978417, -0.0001031496, 0.03634167, 1.194, 82.32002, -1.524683, 21.58823
6.139928, 1.001504, -0.006442872, 0.0147457, 3.572049, 93.44808, -1.402732, 21.72941
6.159928, 1.011758, 0.006741333, 0.01744525, 0.6452195, 117.7773, -2.103951, 21.72941
6.179929, 0.9905175, 0.007938232, 0.09512931, 1.163512, 135.6127, -2.439317, 21.72941
6.208525, 0.9414453, 0.007452392, 0.2929129, 2.992781, 125.7651, -1.128341, 21.63529
6.222512, 0.9538964, 0.006259155, 0.301535, -2.098683, 118.3871, -1.402732, 21.68236
6.239935, 0.9233788, 0.01626343, 0.3499584, -5.299903, 106.9542, -1.829561, 21.77647
6.25993, 0.9292382, 0.02206177, 0.3226771, -4.62917, 103.7529, -1.372244, 21.68236
6.279932, 0.9360742, 0.01427185, 0.3055669, -2.373073, 111.131, -1.463707, 21.63529
6.299933, 0.9143456, 0.0003881836, 0.3804933, 1.102537, 112.9603, -2.286878, 21.72941
6.319927, 0.9170312, 0.005738525, 0.4087761, 1.194, 120.6127, -2.408829, 21.63529
6.339925, 0.8603906, 0.008900146, 0.4783161, 1.041561, 117.0456, -2.591756, 21.63529
6.359927, 0.84208, 0.01063416, 0.5223666, 0.7366829, 111.3749, -2.774683, 21.72941
6.379925, 0.824746, 0.0001324462, 0.58503, -2.159659, 101.9237, -5.701512, 21.72941
6.408701, 0.8186425, 0.02157166, 0.5216279, -2.037707, 109.4542, -4.20761, 21.68236
6.422729, 0.8135156, 0.02424194, 0.547009, 0.6757073, 117.5944, -2.53078, 21.68236
6.439935, 0.7703027, 0.01718933, 0.6337186, 0.6147317, 119.0578, -2.469805, 21.68236
6.45993, 0.7319726, 0.0201123, 0.6797313, -0.1779512, 111.4969, -2.317366, 21.68236
6.479929, 0.7092676, 0.01718262, 0.7001231, -0.7877073, 109.2407, -2.835659, 21.68236
6.499927, 0.6914453, 0.003311157, 0.7364192, -0.4218536, 103.9359, -4.908829, 21.77647
6.519926, 0.6636133, 0.01668823, 0.7466214, -1.306, 101.3749, -5.03078, 21.68236
6.539933, 0.6577539, 0.02473511, 0.7248507, -1.702342, 110.5517, -3.353951, 21.77647
6.559925, 0.6133203, 0.01790588, 0.7666276, 0.06595123, 116.9542, -2.073463, 21.68236
6.57993, 0.579873, 0.02354614, 0.8082266, 1.041561, 119.4847, -2.378342, 21.68236
6.608832, 0.5093164, 0.03231018, 0.918616, 0.2183902, 105.1859, -2.866147, 21.63529
6.622857, 0.472207, 0.005021362, 0.9185247, -0.6352683, 95.85661, -6.372244, 21.63529
6.639934, 0.4675683, 0.007939453, 0.8813204, -2.616976, 93.11271, -8.536879, 21.63529
6.659928, 0.4787988, 0.02985474, 0.819167, -1.123073, 108.3261, -7.591756, 21.72941
6.679933, 0.4267969, 0.02158264, 0.8851667, -1.793805, 120.4908, -7.927122, 21.72941
6.699928, 0.3828516, 0.0432489, 0.9072701, 0.3098537, 123.7225, -3.140537, 21.63529
6.719929, 0.3191309, 0.02961853, 0.9757571, 0.7366829, 107.6249, -1.921024, 21.72941
6.739932, 0.2861719, 0.02450195, 1.020245, 0.1269268, 103.6615, -4.421024, 21.77647
6.759924, 0.2312402, 0.002819824, 1.040411, -1.001122, 84.66759, -9.085659, 21.68236
6.779932, 0.2322168, 0.0750238, 0.8869383, 0.2793658, 80.85661, -9.725903, 21.68236
6.809055, 0.2136621, 0.04616638, 1.005653, 0.7061951, 76.03954, -3.201512, 21.68236
6.823081, 0.1850977, 0.04960205, 1.037785, 0.4927805, 70.33832, -1.402732, 21.68236
6.839932, 0.159707, 0.03644104, 0.9769612, 1.194, 66.49685, -1.463707, 21.72941
6.85993, 0.137002, 0.02160095, 0.9335124, 1.773268, 78.75295, -5.45761, 21.82353
6.879928, 0.1079492, 0.006722412, 0.9307949, 2.078146, 96.55784, -11.06737, 21.72941
6.899925, 0.08695313, 0.06342957, 1.06751, -3.043805, 100.5517, -6.433219, 21.63529
6.919928, 0.0146875, 0.03910583, 1.479178, -0.1779512, 33.11271, -0.09175611, 21.63529
6.939924, 0.02982422, 0.03841797, 1.027693, -0.02551222, 10.03344, 0.09117073, 21.63529
6.959929, 0.03666016, 0.03008545, 0.9675272, -0.1474634, 8.20417, 0.1216585, 21.63529
6.979928, 0.02176758, 0.03033142, 1.016724, -0.1474634, 0.8566098, 0.09117073, 21.72941
7.009126, 0.03250977, 0.03206299, 1.013004, -0.1169757, 1.618805, 0.1826341, 21.68236
7.023142, 0.0278711, 0.03498291, 1.005964, 0.3708293, 8.966366, -0.3661463, 21.68236
7.039935, 0.07987305, 0.0335498, 0.9181149, 2.230585, 81.77124, -1.890537, 21.77647
7.059927, 0.04081055, 0.03277649, 1.074938, -1.549902, 2.320024, 0.3960488, 21.72941
7.079929, 0.04813477, 0.02887573, 1.12625, -0.3913659, 1.801732, 0.3350732, 21.68236
7.099929, -0.0802832, 0.02935425, 1.094205, 0.5232683, -2.801927, 0.06068292, 21.77647
7.119929, -0.0004492178, 0.02767029, 1.009799, -0.3913659, 0.03343904, -1.280781, 21.72941
7.139927, -0.02486328, 0.04790405, 0.9885793, -1.275512, 0.826122, -0.0002926588, 21.77647
7.159931, -0.01070312, 0.02693176, 0.9917965, -0.2999024, -0.271439, 0.09117073, 21.72941
7.179929, -0.001669921, 0.03694824, 0.9992782, -0.05599999, 0.06392682, 0.1826341, 21.63529
7.209338, -0.007041015, 0.0278894, 0.9949002, 0.06595123, -0.05802441, -0.06126827, 21.68236
7.223431, -0.002646483, 0.03179993, 0.9966932, -0.05599999, -0.08851218, 0.1216585, 21.68236
7.239934, -0.008017577, 0.02985229, 0.9981556, -0.08648777, -0.119, 0.09117073, 21.63529
7.25993, -0.001669921, 0.03350464, 0.996402, -0.1474634, -0.1799756, 0.1826341, 21.82353
7.279927, -0.001669921, 0.03107239, 0.9951724, -0.02551222, 0.2163659, 0.06068292, 21.72941
7.29993, -0.0009374991, 0.03497253, 1.006665, 0.06595123, -0.05802441, -0.0002926588, 21.68236
7.319936, -0.00508789, 0.02643677, 1.004671, -0.3303902, -0.02753651, 0.1521463, 21.68236
7.339932, 0.003701173, 0.0308197, 0.9998251, -0.05599999, -0.05802441, 0.1216585, 21.68236
7.359928, -0.0004492178, 0.02911255, 1.003931, -0.08648777, 0.1553903, 0.06068292, 21.68236
7.379927, -0.0009374991, 0.02887268, 1.000301, -0.08648777, -0.05802441, 0.03019512, 21.63529
7.409578, -0.008505858, 0.01040283, 1.003216, 0.03546345, 0.03343904, -7.195415, 21.63529
7.423654, -0.01314453, -0.02158264, 0.9888082, 0.004975557, -0.5763171, -12.28688, 21.68236
7.439935, 0.006142579, 0.04883179, 0.9912419, -0.02551222, -0.3019269, -5.305171, 21.68236
7.459931, 0.004921876, 0.06832458, 0.9939313, -0.05599999, 0.2468537, 8.627756, 21.68236
7.479925, 0.02591797, 0.03958435, 0.9982685, -0.05599999, -0.271439, 15.09117, 21.72941
7.499932, -0.01558594, 0.03130798, 1.012336, -0.08648777, 0.09441471, 9.908244, 21.72941
7.519932, -0.02925781, 0.02986755, 1.013025, 0.1574147, -0.2104634, 4.694829, 21.77647
7.539928, -0.024375, 0.02204712, 1.012683, -0.3608781, 0.03343904, 4.054585, 21.68236
7.559926, 0.05936523, 0.04667786, 1.018003, -2.00722, -1.338512, 9.664341, 21.72941
7.579931, -0.00508789, 0.03643188, 1.103581, -11.18405, -3.655585, 11.00581, 21.68236
7.609691, -0.02974609, 0.02547791, 1.047663, -22.25112, -13.56412, 1.859464, 21.68236
7.623807, 0.002968751, 0.01742798, 1.00648, -19.14137, -11.03363, -1.128341, 21.72941
7.639937, -0.05586914, 0.007445678, 1.003622, -19.75112, -14.50924, -4.299073, 21.63529
7.659928, -0.005576171, 0.01792542, 1.025114, -26.306, -12.83242, -6.829561, 21.77647
7.679927, 0.000283204, 0.002095337, 1.130417, -46.24503, -4.448268, -7.103951, 21.63529
7.699925, 0.06424805, 0.03620911, 1.219108, -85.11698, 9.362707, -8.719806, 21.72941
7.71993, -0.001669921, -0.03152222, 1.129835, -102.7694, 14.3932, -14.42103, 21.63529
7.739928, -0.02779297, -0.116991, 1.028075, -97.12917, 2.045634, -15.15273, 21.72941
7.759925, -0.01509766, -0.1864038, 0.9418177, -74.78161, -8.990952, -19.93932, 21.72941
7.779933, 0.06888672, -0.138667, 1.027188, -61.58039, -15.54583, -10.94542, 21.72941
7.809862, -0.02413086, -0.1584113, 1.111542, -55.29991, -16.06412, -12.19542, 21.72941
7.823991, 0.04496094, -0.1549811, 1.092356, -56.21454, -11.49095, -14.2381, 21.68236
7.83994, 0.0471582, -0.1803223, 1.061215, -50.23893, -2.679976, -13.41493, 21.63529
7.859928, 0.05350586, -0.2039069, 1.055236, -43.22673, -1.64339, -9.786879, 21.77647
7.879929, 0.02298828, -0.2504578, 1.003703, -33.86698, -1.826317, -8.353951, 21.63529
7.899932, 0.0940332, -0.1718762, 1.027269, -39.3243, 5.521244, -6.890537, 21.72941
7.91993, 0.04666992, -0.2372955, 1.125002, -62.76942, 7.137098, -5.03078, 21.72941
7.939933, 0.03958985, -0.2738184, 1.135142, -84.35478, 3.234659, -4.055171, 21.72941
7.959926, -0.01729492, -0.3142383, 1.06096, -95.8182, -9.570219, -11.40273, 21.77647
7.97993, 0.03983399, -0.3015753, 1.046402, -107.7694, 2.137098, -11.25029, 21.72941
8.010049, -0.01265625, -0.4094623, 0.8697038, -107.3121, 0.3078293, -14.32956, 21.68236
8.024181, 0.06375977, -0.3785297, 0.8848359, -105.0865, -1.155585, -9.634439, 21.72941
8.039937, 0.07108398, -0.4094788, 0.8474447, -99.5682, 3.783439, -4.908829, 21.68236
8.059931, 0.04618164, -0.4654889, 0.9247602, -94.50723, 6.191976, -2.225903, 21.68236
8.079925, 0.01371094, -0.5431659, 0.9604456, -101.2755, -6.91778, -11.21981, 21.68236
8.099928, -0.002890624, -0.512243, 0.7575211, -97.52551, -8.015341, -13.56737, 21.68236
8.119926, 0.04862305, -0.4720716, 0.6834311, -85.75723, 1.131, -7.317366, 21.58823
8.13993, 0.1391992, -0.477193, 0.7481863, -91.42796, 5.673683, -0.8539513, 21.72941
8.159927, 0.08670898, -0.5024695, 0.6881257, -91.06211, 6.374903, 5.944829, 21.77647
8.179932, 0.05570313, -0.5709217, 0.6761175, -97.15966, 3.539537, 2.499707, 21.77647
8.21018, 0.02884766, -0.6566412, 0.7071942, -108.2267, -2.832415, -14.36005, 21.68236
8.22428, 0.04447266, -0.6339838, 0.6994136, -103.684, -3.106805, -14.32956, 21.72941
8.239932, 0.01517578, -0.6637127, 0.6478291, -99.53772, -0.9421706, -11.52468, 21.72941
8.259928, 0.06083008, -0.6773602, 0.6951312, -104.1718, -0.8202195, -7.134439, 21.72941
8.279928, 0.07572266, -0.7058569, 0.6316068, -107.0377, 1.649293, -1.219805, 21.72941
8.299932, 0.06229492, -0.7367651, 0.606508, -106.8548, 6.313927, 0.9753171, 21.72941
8.319926, 0.04398438, -0.7477368, 0.5570302, -104.1414, 2.899293, -1.341756, 21.68236
8.339923, 0.04789063, -0.777674, 0.5174125, -99.78161, 1.161488, -6.982, 21.63529
8.359927, 0.09110352, -0.8249359, 0.5346132, -98.47064, 0.7956342, -12.16493, 21.58823
8.379932, 0.08915039, -0.8140081, 0.4522033, -95.08649, 5.002952, -8.567367, 21.72941
8.410345, 0.07791992, -0.8234711, 0.4331035, -89.20235, 3.143195, -1.768585, 21.72941
8.424461, 0.04154297, -0.8222601, 0.3955242, -87.89137, 0.3383171, 0.6094635, 21.68236
8.439934, 0.04569336, -0.8161835, 0.3721275, -88.34868, -2.588512, 4.96922, 21.82353
8.459931, 0.08890625, -0.8195428, 0.372058, -92.67796, -1.216561, 9.389951, 21.63529
8.479928, 0.0862207, -0.9313354, 0.3647554, -91.88527, -0.7897317, 5.822878, 21.72941
8.499931, 0.06131836, -0.9354877, 0.3462797, -87.00723, -6.338512, 0.9448293, 21.72941
8.519928, 0.0525293, -0.9199151, 0.2864001, -81.70235, -8.899488, 0.4875122, 21.72941
8.539934, -0.02022461, -0.9182251, 0.2105698, -69.99503, -8.04583, -2.988098, 21.63529
8.559927, 0.03495117, -0.8721881, 0.187224, -62.73893, 1.344415, 0.5789756, 21.77647
8.579926, 0.1086816, -0.8677814, 0.1949906, -64.96454, 11.22246, 7.560683, 21.72941
8.610533, 0.08646484, -0.9350019, 0.1825267, -71.42796, 4.301732, 8.780195, 21.72941
8.624591, 0.05008789, -0.9654651, 0.1607491, -70.90966, -2.649488, 7.164342, 21.63529
8.639934, 0.02542969, -0.9785955, 0.1267414, -68.01332, -9.631195, -0.2137073, 21.72941
8.659929, 0.02274414, -0.9742102, 0.09418077, -62.19015, -13.28973, -8.93322, 21.72941
8.679934, 0.03934571, -1.048499, 0.09949453, -53.3182, -8.533634, -13.87225, 21.72941
8.699932, 0.07865234, -1.022423, 0.06398836, -40.08649, 2.899293, -3.353951, 21.63529
8.719929, 0.06913086, -1.009052, 0.01209201, -29.35478, 8.08222, 0.03019512, 21.72941
8.739926, 0.03739258, -0.964007, -0.02073444, -26.79381, 3.021244, -1.616146, 21.72941
8.759927, 0.07132813, -0.9554749, -0.02487719, -29.84259, -1.338512, -2.073463, 21.72941
8.779929, 0.1435938, -0.9605768, -0.01465514, -38.62307, 3.295634, 0.2740976, 21.63529
8.81072, 0.1020898, -1.076721, -0.01068007, -35.36088, 2.320024, -0.3356586, 21.63529
8.824863, 0.06766602, -1.112066, 0.005879432, -27.73893, -1.216561, -2.805171, 21.72941
8.839933, 0.05350586, -1.041686, -0.04473615, -21.42795, -5.942171, -5.579561, 21.68236
8.859934, 0.06253906, -0.9678906, -0.06222123, -15.5438, -8.929976, -1.890537, 21.68236
8.879927, 0.07572266, -0.9481586, -0.05734606, -11.64137, -3.838512, 4.115561, 21.68236
8.899925, 0.1052637, -0.9493725, -0.03961301, -8.440146, 5.58222, 14.23751, 21.77647
8.919932, 0.05423828, -1.01461, -0.03137849, -1.306, 3.874903, 12.83507, 21.72941
8.93993, 0.01908203, -1.045322, -0.02310958, 6.407414, 0.9175854, 6.249708, 21.68236
8.95993, 0.03617188, -1.011747, -0.03118023, 8.541561, -1.91778, 1.554585, 21.72941
8.979924, 0.07254883, -0.964959, -0.02513152, 3.663512, -2.771439, 1.463122, 21.68236
9.010874, 0.08670898, -0.9676397, -0.01047926, -3.897464, 0.6127074, 4.847269, 21.68236
9.025089, 0.06107422, -0.9769165, -0.009009316, -7.28161, 1.435878, 4.146049, 21.72941
9.039931, 0.05204102, -0.9766583, -0.002203971, -10.26942, 2.65539, 4.420439, 21.68236
9.059928, 0.04837891, -1.008536, -0.01225324, -11.67185, 3.874903, 2.621659, 21.72941
9.07993, 0.01078125, -1.028762, -0.00563468, -9.568195, 1.131, -1.585659, 21.77647
9.099927, 0.02738281, -0.9995465, -0.01972857, -6.397464, -0.1799756, -1.250293, 21.68236
9.119928, 0.04129883, -0.9888221, -0.01947933, -2.00722, 0.3383171, 0.7314147, 21.77647
9.139932, 0.05033203, -1.000762, -0.01703665, 3.572049, 1.67978, 3.139951, 21.68236
9.159932, 0.04789063, -1.00197, -0.02147451, 7.931805, 1.649293, 5.609464, 21.72941
9.17993, 0.04276367, -1.010757, -0.02118066, 10.12693, 2.350512, 5.091171, 21.68236
9.211003, 0.03006836, -1.01441, -0.00970988, 9.425708, 0.2163659, -1.097854, 21.68236
9.225139, 0.03910156, -0.9907984, -0.008799582, 6.346439, -0.8507072, -1.463707, 21.68236
9.239932, 0.05692383, -0.9973541, -0.005179539, 3.694, -1.338512, -1.738098, 21.72941
9.259928, 0.06058594, -1.001968, 0.003578946, 1.194, -2.192171, -1.250293, 21.72941
9.279928, 0.06107422, -1.023421, 0.008934736, 0.1879025, -3.076317, -1.677122, 21.82353
9.299926, 0.03958985, -0.9941949, -0.01977827, 1.011073, -1.765342, -1.555171, 21.72941
9.319932, 0.0369043, -0.9844507, -0.01954815, 2.322049, -0.6068048, -1.70761, 21.63529
9.339921, 0.01688477, -1.006636, -0.01490055, 4.578146, 1.862707, -2.835659, 21.63529
9.359931, 0.03836914, -0.9742059, 0.002580717, 4.913512, 0.8870975, -2.713707, 21.63529
9.379929, 0.07206055, -1.000032, 0.01667588, 2.474488, -3.442171, -3.719805, 21.72941
9.411247, 0.07572266, -0.9936938, 0.008468122, 3.96839, -1.490951, 0.365561, 21.77647
9.425445, 0.05350586, -0.997846, -0.007436693, 4.639122, -1.673878, -0.6405365, 21.72941
9.439934, 0.04862305, -0.991994, 0.006701797, 4.761073, -0.8507072, -0.6710244, 21.72941
9.459928, 0.05619141, -0.9993085, 0.01114221, 3.998878, -2.039732, -0.8539513, 21.72941
9.47993, 0.04911133, -0.994898, 0.009874344, 3.876927, -2.710464, -1.341756, 21.63529
9.499928, 0.04984375, -0.9978442, 0.02129416, 2.748878, -3.198268, -1.616146, 21.63529
9.519932, 0.0525293, -0.9905304, 0.01597276, 1.011073, -2.588512, -0.7624878, 21.82353
9.539933, 0.05472656, -1.001025, 0.01691492, 0.6757073, -0.6068048, 0.4570244, 21.72941
9.55993, 0.06546875, -1.018053, 0.01741722, 0.9500976, -0.4238781, 0.1216585, 21.63529
9.579926, 0.05130859, -0.9978485, 0.01108359, 0.9500976, -0.8507072, 0.6399512, 21.72941
9.611388, 0.04691406, -1.004175, 0.02300315, -0.1169757, -0.5763171, 0.1826341, 21.72941
9.625677, 0.04325195, -1.006112, 0.03056767, 0.248878, 0.002951264, 0.7009268, 21.72941
9.639935, 0.05228516, -1.002719, 0.02281763, 0.004975557, 0.2163659, -0.06126827, 21.77647
9.659926, 0.04691406, -0.9985748, 0.01499239, 1.224488, -0.271439, -0.579561, 21.58823
9.679927, 0.06131836, -1.008065, 0.03299124, 1.498878, -1.612902, -1.555171, 21.77647
9.699926, 0.06644531, -0.9971143, 0.03227666, 0.5232683, -2.436073, -1.402732, 21.68236
9.719924, 0.05570313, -0.9958948, 0.02322817, -0.4828293, -0.4543658, 0.1521463, 21.68236
9.73993, 0.05008789, -0.9966217, 0.01594473, -1.062098, -0.6982683, 0.518, 21.63529
9.759926, 0.03714844, -1.006119, 0.01793863, -0.3608781, -0.9726586, -1.494195, 21.72941
9.779929, 0.05350586, -1.013917, 0.02541269, 0.2793658, -1.612902, -2.53078, 21.72941
9.811549, 0.06327148, -1.000283, 0.02074471, 0.9196098, -1.582415, -1.70761, 21.68236
9.825826, 0.05936523, -1.019285, 0.02788086, 0.4622927, -2.466561, -3.049073, 21.68236
9.839936, 0.05130859, -0.9995496, 0.03078379, -0.5742927, -3.015341, -2.408829, 21.77647
9.859928, 0.07938477, -0.9795728, 0.02053624, -2.098683, -0.3629024, 1.097268, 21.72941
9.879931, 0.05155273, -0.9917578, 0.01818277, -0.9706343, 1.131, 2.011902, 21.77647
9.899933, 0.03397461, -0.999043, 0.00769493, 2.352537, 1.771244, 1.219219, 21.72941
9.91993, 0.0447168, -1.009052, 0.01567383, 2.444, 0.6736829, -1.036878, 21.68236
9.93993, 0.06791016, -1.013683, 0.02667545, 1.925707, 0.6736829, -1.616146, 21.68236
9.959926, 0.07499023, -1.011237, 0.02762015, 0.7061951, -0.3324146, -1.43322, 21.68236
9.979929, 0.06253906, -0.9854334, 0.004278228, 0.4013171, -0.3933902, -0.3966341, 21.72941
10.01181, 0.05326172, -0.9968677, 0.0117918, -0.6962439, 1.009049, 2.164341, 21.68236
10.02616, 0.06424805, -1.014657, 0.02668183, -1.519415, 0.7041708, 0.6399512, 21.63529
10.04021, 0.05423828, -1.00929, 0.01305582, -1.702342, 1.009049, 0.2131219, 21.72941
10.05993, 0.05985352, -1.005864, 0.01793481, -0.5133171, 1.070024, 0.6094635, 21.63529
10.07993, 0.05594727, -0.9975965, 0.01742358, 0.06595123, 0.002951264, 0.5484878, 21.82353
10.09993, 0.05008789, -1.006866, 0.01379207, 0.03546345, -1.308024, -0.2137073, 21.77647
10.11993, 0.05350586, -1.005159, 0.01206142, 0.8281464, -1.795829, -1.463707, 21.72941
10.13993, 0.05326172, -0.9971229, 0.007684722, 2.352537, -0.6982683, -0.9454146, 21.63529
10.15993, 0.05326172, -0.9929852, 0.02522208, 3.236683, 0.2163659, -0.9454146, 21.58823
10.17993, 0.05960938, -0.9871204, 0.02584745, 2.687902, -0.5153414, -1.189317, 21.77647
10.21197, 0.07352539, -0.9934565, 0.03422852, -0.2999024, 0.2773415, 0.3045854, 21.72941
10.22629, 0.06205078, -1.006619, 0.01520467, -0.6047806, -0.02753651, -0.3356586, 21.72941
10.24031, 0.04862305, -1.006124, 0.01252803, -0.1169757, 0.09441471, 0.06068292, 21.68236
10.25993, 0.04569336, -1.004904, 0.003820539, 2.413512, 0.1858781, -0.6100488, 21.72941
10.27993, 0.04520508, -1.008089, 0.002870739, 4.547659, -0.3933902, -0.6405365, 21.68236
10.29993, 0.06327148, -1.002203, 0.007990047, 5.706195, -0.728756, -0.3356586, 21.72941
10.31993, 0.07254883, -1.010986, 0.01626661, 7.047659, -1.033634, 0.06068292, 21.63529
10.33993, 0.05521484, -1.018286, 0.007688552, 10.91961, -1.64339, 0.2740976, 21.72941
10.35993, 0.0525293, -1.012206, 0.003407449, 15.58424, -1.338512, 1.341171, 21.82353
10.37993, 0.04203125, -0.9995392, -0.02537438, 21.80376, -0.08851218, 2.438732, 21.72941
10.41221, 0.05423828, -0.9829828, -0.0217161, 30.64522, 0.002951264, 2.987512, 21.77647
10.42656, 0.06083008, -0.9980865, -0.001490667, 36.80376, -1.826317, 3.749707, 21.72941
10.44055, 0.06913086, -1.009785, 0.02010787, 41.80376, -4.173878, 3.29239, 21.77647
10.45993, 0.05716797, -1.013696, 0.03447266, 49.24278, -7.771439, 1.524098, 21.72941
10.47993, 0.03250977, -0.9869104, 0.02981614, 59.02936, -8.381195, 0.6094635, 21.68236
10.49993, 0.06791016, -0.9238031, 0.04007387, 64.91352, -7.283635, 6.21922, 21.82353
10.51993, 0.06717773, -0.9362391, 0.07451627, 68.81596, -3.899488, 11.37166, 21.68236
10.53993, 0.07279297, -0.9578766, 0.1011602, 74.30376, 0.6736829, 12.59117, 21.77647
10.55993, 0.02762696, -0.9827179, 0.1361571, 81.4379, -2.131195, 7.652147, 21.68236
10.57993, 0.05277344, -0.9980725, 0.2022945, 81.28547, -7.649488, 0.3045854, 21.72941
10.61243, 0.05399414, -0.9364642, 0.2102632, 82.59645, -12.25315, -4.969805, 21.68236
10.62678, 0.05326172, -0.8895075, 0.1882867, 85.40133, -9.905586, -1.494195, 21.68236
10.64076, 0.05716797, -0.8614899, 0.2263204, 88.08425, -5.179976, 4.268, 21.82353
10.65993, 0.04837891, -0.8651074, 0.2529452, 91.98668, 1.100512, 7.499708, 21.72941
10.67993, 0.06717773, -0.7952777, 0.3133985, 95.03547, 2.777341, 8.231415, 21.72941
10.69993, 0.08426758, -0.8767969, 0.3749329, 98.41961, 1.649293, 7.164342, 21.72941
10.71993, 0.01322266, -0.867099, 0.3588285, 105.1879, -5.881195, 2.957025, 21.72941
10.73993, 0.03348633, -0.7922979, 0.3576129, 109.2733, -6.09461, 5.091171, 21.72941
10.75993, -0.02291016, -0.7591949, 0.3612227, 123.3891, 2.807829, 8.536292, 21.82353
10.77993, 0.01200195, -0.681261, 0.4013046, 133.3282, 16.71027, 16.5241, 21.72941
10.81252, 0.04959961, -0.7370069, 0.5978076, 143.2977, 10.24686, 20.06068, 21.68236
10.82686, 0.04862305, -0.7185071, 0.6344243, 139.7611, 3.509049, 15.57898, 21.77647
10.84077, 0.03885742, -0.7051435, 0.6706037, 134.0599, -0.8202195, 12.71312, 21.63529
10.85993, -0.01705078, -0.6759027, 0.7258618, 122.4135, -11.39949, 7.255805, 21.72941
10.87992, -0.02461914, -0.6364551, 0.7195982, 114.7611, -10.05803, 6.585073, 21.72941
10.89993, -0.02022461, -0.5499786, 0.6981763, 116.4989, 5.002952, 15.06068, 21.68236
10.91993, 0.03714844, -0.5531671, 0.7430582, 116.5294, 13.35661, 17.22532, 21.63529
10.93992, 0.01566406, -0.5356232, 0.8242303, 114.1818, 11.3749, 15.42654, 21.63529
10.95993, 0.02103516, -0.5341961, 0.9426776, 106.4684, 0.5822196, 11.37166, 21.72941
10.97993, -0.06734375, -0.5670307, 1.02726, 91.83425, -14.75315, -0.6405365, 21.72941
11.01276, -0.06661133, -0.4662219, 0.8094702, 91.46839, -13.13729, -9.786879, 21.72941
11.02711, -0.0004492178, -0.3816986, 0.8257499, 98.99888, -2.039732, -3.689317, 21.72941
11.04107, 0.04325195, -0.4116693, 0.8101656, 107.1391, 0.1553903, -1.311268, 21.63529
11.05993, 0.04911133, -0.3805035, 0.8447973, 116.7123, 1.801732, 1.158244, 21.77647
11.07993, 0.01932617, -0.3622101, 1.009917, 109.8525, -4.539732, -0.6100488, 21.63529
11.09993, 0.001259767, -0.351991, 1.163927, 87.71839, -13.13729, -5.000293, 21.72941
11.11993, 0.0005273447, -0.3283734, 1.08974, 74.85254, -14.08242, -3.628341, 21.72941
11.13993, -0.04073242, -0.3120361, 1.009977, 71.62084, -9.936073, -6.097854, 21.68236
11.15993, -0.03584961, -0.2811322, 0.9359118, 78.14522, -2.161683, -6.219805, 21.63529
11.17993, 0.01615234, -0.2465723, 0.9656497, 86.59035, 6.131, 0.5789756, 21.72941
11.21292, 0.04764648, -0.179837, 1.010938, 88.9379, 4.33222, 7.377757, 21.72941
11.2272, 0.04666992, -0.1888568, 1.090739, 88.63303, 0.5822196, 8.200927, 21.72941
11.2411, 0.02835938, -0.1781384, 1.182163, 78.75497, -4.875098, 3.627756, 21.68236
11.25993, -0.03243164, -0.1291534, 1.223943, 56.25498, -5.881195, 4.96922, 21.68236
11.27993, -0.09883789, -0.1790796, 1.229643, 64.57815, 16.00905, 0.8838537, 21.68236
11.29993, -0.07662109, -0.09170044, 1.160187, 49.79156, 6.344415, -3.353951, 21.58823
11.31993, 0.01053711, -0.05828064, 1.051139, 40.85864, 1.131, -1.982, 21.68236
11.33993, 0.05326172, -0.05441528, 0.988404, 40.9501, 2.045634, 2.072878, 21.68236
11.35993, 0.06083008, -0.0441626, 0.9733029, 39.33424, 5.216366, 5.578976, 21.68236
11.37993, 0.03739258, -0.04903381, 1.034058, 31.77327, 8.631001, 6.127756, 21.68236
11.41302, -0.05464844, -0.04418457, 1.03652, 17.29156, 8.570024, 0.365561, 21.68236
11.42728, -0.01753906, -0.0307666, 0.9901677, 15.30985, 8.966366, -1.158829, 21.72941
11.44119, -0.02876953, -0.02370544, 0.9720542, 15.06595, 10.1249, -3.292976, 21.63529
11.45993, 0.01297852, -0.002543335, 0.9571947, 19.63912, 9.728561, -0.7929757, 21.63529
11.47993, -0.001914062, 0.0106012, 0.9866734, 23.26717, 15.97856, 4.96922, 21.72941
11.49993, 0.008828126, -0.001792603, 0.9798655, 25.37083, 21.00905, 9.207025, 21.72941
11.51993, -0.03511719, 0.006467896, 1.002477, 23.72449, 19.54564, 10.82288, 21.72941
11.53993, -0.05538086, -0.04368347, 1.095677, 19.33424, 5.978561, 5.182634, 21.68236
11.55993, -0.06612305, 0.02620361, 1.088994, 13.63303, 2.137098, 2.652146, 21.72941
11.57993, -0.07857422, 0.01376343, 1.023613, 9.12083, -0.9421706, -2.652732, 21.82353
11.61322, -0.01045898, 0.05594849, 1.038474, 6.224488, -7.619, 0.1826341, 21.77647
11.62744, -0.02779297, 0.0388562, 1.019234, 5.309854, -9.082415, 2.347268, 21.68236
11.64129, 0.003945313, 0.03812622, 1.002641, 2.626927, -17.71046, 6.707025, 21.77647
11.65993, 0.01639649, 0.02620178, 0.9919972, 5.950098, -23.77754, 7.774098, 21.68236
11.67992, -0.007285155, 0.05405334, 0.9928482, 3.389122, -18.83851, 7.194829, 21.68236
11.69993, -0.05953125, 0.01865967, 1.001919, 5.126927, -12.95437, -0.09175611, 21.63529
11.71993, -0.06294922, 0.04888916, 1.002895, 3.633024, 0.3688049, -5.183219, 21.72941
11.73993, -0.01363281, 0.03180603, 0.9956861, 1.834244, 3.539537, -4.908829, 21.72941
11.75993, -0.0006933585, 0.04059082, 1.02534, -0.4828293, 5.612708, -1.463707, 21.72941
11.77993, 0.02396484, 0.04692017, 0.9978554, -2.708439, 3.204171, 1.585073, 21.82353
11.81335, -0.02291016, 0.02961548, 1.007753, -12.03771, -8.442171, 5.518, 21.77647
11.82774, -0.03243164, -0.0662732, 0.9729466, -1.123073, -14.53973, 5.761903, 21.77647
11.84166, -0.00533203, 0.02351929, 0.976494, 0.3403414, -14.32632, 4.847269, 21.72941
11.85993, 0.01053711, 0.04642151, 1.023957, -0.6352683, -8.350708, 4.450927, 21.68236
11.87993, -0.0165625, 0.03057983, 0.9927615, 0.1574147, -0.3629024, 1.554585, 21.77647
11.89993, -0.01363281, 0.02447815, 0.9946994, 0.1574147, 0.7651464, 0.1216585, 21.68236
11.91993, 0.0005273447, 0.0342395, 0.9951877, 0.4927805, 1.740756, -0.4271219, 21.82353
11.93993, -0.002158202, 0.02374329, 1.004158, 0.2793658, 1.100512, -1.189317, 21.63529
11.95993, -0.004599608, 0.03376038, 0.9983526, 0.1574147, 0.4907561, -1.829561, 21.77647
11.97992, 0.004189454, 0.02910706, 1.006138, 0.096439, 1.283439, -0.8234634, 21.58823
12.01354, -0.001669921, 0.02789551, 1.008872, -0.05599999, 1.466366, -0.579561, 21.82353
12.02782, -0.004843749, 0.02937012, 1.000032, -0.08648777, -0.4238781, -1.524683, 21.77647
12.04169, -0.008017577, 0.03254089, 0.9995682, 0.03546345, -0.8507072, -1.768585, 21.63529
12.05993, -0.0009374991, 0.02740784, 0.9980906, 0.03546345, -0.08851218, -1.70761, 21.77647
12.07993, -0.00899414, 0.0322821, 0.9995631, -0.05599999, -0.6068048, -1.524683, 21.63529
12.09993, -0.0009374991, 0.0301001, 0.995433, 0.004975557, 0.06392682, -0.06126827, 21.72941
12.11993, 0.003457032, 0.03254272, 0.9890613, -0.08648777, -0.2104634, 0.1216585, 21.77647
12.13993, 0.003701173, 0.02815857, 1.001744, 0.06595123, -0.1494877, 0.1826341, 21.68236
12.15993, -0.003623046, 0.02472351, 0.9973799, 0.004975557, -0.02753651, -0.1527317, 21.68236
12.17993, -0.007285155, 0.02569702, 0.9990328, -0.1169757, 0.3078293, -0.06126827, 21.77647
12.21374, 0.003212892, 0.03155823, 0.997877, -0.1779512, 0.09441471, 0.1826341, 21.72941
12.22815, 0.002236329, 0.03082764, 1.00049, 0.004975557, 0.06392682, -0.0002926588, 21.68236
12.24206, -0.004599608, 0.03741882, 1.014494, 0.004975557, 0.2163659, -0.09175611, 21.68236
12.25993, -0.003623046, 0.02985474, 0.9968864, -0.1169757, 0.2468537, 0.09117073, 21.72941
12.27993, 0.01175781, 0.03398376, 0.9973747, 0.004975557, 0.2773415, -0.09175611, 21.63529
12.29993, -0.0004492178, 0.03229736, 1.001267, -0.08648777, 0.09441471, -0.0002926588, 21.72941
12.31993, 0.001015626, 0.03375733, 0.9998302, 0.3098537, 0.09441471, 0.1216585, 21.63529
12.33992, -0.004599608, 0.0308252, 0.9981085, 0.004975557, -0.02753651, 0.06068292, 21.72941
12.35993, -0.00923828, 0.02449707, 1.004236, -0.02551222, 0.1249025, -0.03078049, 21.72941
12.37992, -0.00142578, 0.0325415, 0.9924893, 0.1269268, -1.064122, -0.4271219, 21.68236
12.41394, -0.005820312, 0.03450073, 1.001058, -0.05599999, -0.119, 0.09117073, 21.63529
12.4283, 0.00248047, 0.03108093, 1.014255, -0.1169757, -0.02753651, 0.03019512, 21.72941
12.44215, 0.001503907, 0.03474854, 0.9976583, -0.208439, 0.06392682, -0.06126827, 21.68236
12.45993, -0.0009374991, 0.03596069, 0.9961961, 0.03546345, -0.4848536, -0.0002926588, 21.63529
12.47993, -0.00142578, 0.0318042, 1.004701, 0.03546345, -0.3019269, -0.1222439, 21.72941
12.49993, 0.003212892, 0.0310675, 1.000087, 0.004975557, 0.002951264, -0.1527317, 21.72941
12.51993, -0.003867187, 0.03303162, 1.001033, -0.08648777, 0.03343904, -0.03078049, 21.72941
12.53993, -0.003134765, 0.0313147, 1.001521, -0.02551222, 0.1858781, 0.03019512, 21.72941
12.55993, 0.0005273447, 0.0295935, 0.9907995, 0.004975557, 0.2163659, 0.06068292, 21.63529
12.57993, -0.003378905, 0.03596741, 0.9998556, 0.03546345, -0.05802441, 0.06068292, 21.72941
12.61407, -0.007773437, 0.02741394, 1.002986, -0.02551222, 0.1553903, -0.2137073, 21.77647
12.62851, 0.000283204, 0.02812317, 0.9964364, -0.05599999, 0.002951264, -0.09175611, 21.77647
12.64237, -0.008261718, 0.02962097, 0.9949409, 0.004975557, -0.271439, 0.06068292, 21.77647
12.65993, -0.001914062, 0.03228943, 1.005898, 0.1269268, -0.2104634, -0.09175611, 21.77647
12.67993, 3.906339e-05, 0.03082092, 1.000744, 0.096439, 0.09441471, 0.09117073, 21.72941
12.69993, -0.0006933585, 0.028396, 1.005452, -0.02551222, 0.2468537, 0.06068292, 21.68236
12.71993, -0.0002050772, 0.02960754, 0.9905464, 0.004975557, -0.02753651, 0.2131219, 21.68236
12.73992, 0.005654298, 0.03082397, 0.9990417, 0.004975557, -0.05802441, 0.1521463, 21.63529
12.75993, 3.906339e-05, 0.03545166, 1.000821, -0.05599999, -0.08851218, 0.1826341, 21.77647
12.77993, 0.0005273447, 0.03058594, 1.00004, -0.1779512, -0.02753651, -0.0002926588, 21.68236
12.81419, 0.003212892, 0.026922, 0.9978783, -0.08648777, 0.06392682, -0.06126827, 21.77647
12.82856, -0.003623046, 0.03278381, 0.9973543, -0.1169757, 0.03343904, -0.06126827, 21.72941
12.84239, 0.001015626, 0.03133057, 0.9973964, -0.08648777, -0.1494877, 0.1216585, 21.72941
12.85993, -0.0009374991, 0.02936707, 1.003219, 0.1269268, 0.09441471, 0.1521463, 21.77647
12.87993, 0.00248047, 0.0327771, 0.9927169, 0.004975557, 0.09441471, 0.1521463, 21.68236
12.89993, -0.003134765, 0.03473145, 1.007376, 0.03546345, 0.06392682, -0.1222439, 21.68236
12.91993, 0.004677735, 0.02985596, 0.9983691, 0.096439, -0.02753651, -0.09175611, 21.68236
12.93993, 0.0007714853, 0.03424866, 0.9990672, -0.08648777, -0.119, -0.09175611, 21.77647
12.95992, 3.906339e-05, 0.02937317, 0.9956555, -0.05599999, 0.1249025, -0.09175611, 21.68236
12.97993, 0.00272461, 0.02937622, 0.9961668, 0.1879025, -0.08851218, 0.06068292, 21.68236
13.01441, -0.003623046, 0.03644104, 0.9990913, -0.1474634, 0.002951264, 0.03019512, 21.77647
13.02878, 0.004921876, 0.02691345, 1.007157, 0.004975557, 0.002951264, -0.0002926588, 21.68236
13.04258, 0.002236329, 0.03057983, 1.004215, -0.05599999, 0.03343904, 0.03019512, 21.68236
13.05993, -0.00508789, 0.0296106, 0.9981276, -0.08648777, -0.02753651, 0.1216585, 21.63529
13.07993, 0.0007714853, 0.03254761, 1.006418, -0.02551222, 0.002951264, 0.1216585, 21.72941
13.09993, 0.00663086, 0.03131042, 0.9975883, 0.03546345, 0.1249025, 0.1216585, 21.63529
13.11993, 0.002968751, 0.02764221, 0.9891134, -0.2694147, -0.05802441, -0.09175611, 21.72941
13.13993, 0.001992188, 0.03424194, 1.000058, -0.02551222, 0.03343904, -0.03078049, 21.63529
13.15993, -0.004843749, 0.03156433, 1.002762, -0.02551222, -0.119, 0.09117073, 21.72941
13.17993, 0.004189454, 0.03523132, 0.9989071, 0.1574147, -0.02753651, -0.09175611, 21.77647
13.21459, -0.004111327, 0.03229553, 0.9949181, 0.03546345, 0.06392682, -0.1527317, 21.63529
13.22895, 0.007119142, 0.02717773, 0.9998123, -0.05599999, 0.1858781, -0.06126827, 21.68236
13.24286, -0.005576171, 0.0398584, 1.002527, 0.1269268, -0.05802441, -0.1527317, 21.68236
13.25993, 0.005654298, 0.0291272, 0.9922045, 0.06595123, -0.1799756, -0.09175611, 21.63529
13.27993, -0.004111327, 0.02668274, 0.9941282, 0.06595123, -0.08851218, 0.06068292, 21.72941
13.29993, -0.0002050772, 0.0381311, 0.9942099, -0.1474634, 0.002951264, -0.09175611, 21.72941
13.31993, 0.001992188, 0.02912109, 1.004625, -0.2694147, -0.119, -0.1222439, 21.72941
13.33993, -0.004843749, 0.03619568, 1.006657, -0.1779512, -0.2409512, 0.1216585, 21.72941
13.35993, 0.000283204, 0.03107849, 0.9949868, -0.05599999, -0.3933902, -0.03078049, 21.72941
13.37992, 0.000283204, 0.027406, 1.00195, 0.06595123, 0.1249025, -0.06126827, 21.72941
13.41473, -0.0006933585, 0.03033142, 0.9975424, -0.1169757, -0.08851218, 0.09117073, 21.72941
13.42909, 0.001259767, 0.03058777, 1.00205, -0.208439, -0.08851218, -0.09175611, 21.68236
13.44293, 0.00638672, 0.03008972, 1.00349, -0.08648777, 0.002951264, -0.09175611, 21.68236
13.45993, -0.009482421, 0.03008178, 1.005937, -0.05599999, 0.2773415, -0.03078049, 21.77647
13.47993, 0.02005859, 0.02449646, 1.002972, -0.1474634, 0.1249025, -0.0002926588, 21.68236
13.49992, 0.0007714853, 0.02961792, 0.9893831, -0.08648777, 0.09441471, -0.03078049, 21.77647
13.51993, 0.001748048, 0.02790833, 1.001261, -0.1779512, 0.06392682, 0.1826341, 21.68236
13.53993, 0.00638672, 0.03108154, 1.006656, -0.02551222, 0.2163659, 0.09117073, 21.82353
13.55992, 0.001992188, 0.03423828, 0.9986145, -0.08648777, -0.119, -0.1527317, 21.77647
13.57993, 0.004677735, 0.03155945, 1.004939, -0.05599999, -0.02753651, 0.06068292, 21.72941
13.61493, 0.001503907, 0.03108582, 1.005922, 0.06595123, 0.002951264, 0.1216585, 21.72941
13.62938, 0.001748048, 0.02984375, 0.9978426, -0.02551222, 0.09441471, 0.06068292, 21.72941
13.64314, 0.001259767, 0.02449402, 0.9939363, 0.004975557, 0.03343904, -0.03078049, 21.72941
13.65993, 0.004433595, 0.03424561, 1.000554, -0.2389269, -0.02753651, 0.06068292, 21.77647
13.67993, -0.0006933585, 0.02986145, 1.002237, -0.05599999, 0.002951264, 0.06068292, 21.72941
13.69993, -0.001914062, 0.02936646, 1.006651, -0.02551222, -0.05802441, 0.1521463, 21.72941
13.71993, -0.001914062, 0.03278625, 1.000322, -0.08648777, -0.3019269, 0.03019512, 21.72941
13.73993, 0.003701173, 0.03375671, 0.9922745, -0.05599999, 0.03343904, 0.1521463, 21.72941
13.75993, -0.003378905, 0.03276733, 1.003233, 0.004975557, 0.09441471, -0.09175611, 21.72941
13.77993, 0.004433595, 0.03620239, 1.007596, -0.1169757, 0.03343904, 0.2740976, 21.77647
13.81509, 0.001503907, 0.03497986, 0.9988472, -0.02551222, 0.03343904, -0.1222439, 21.68236
13.82957, 0.004433595, 0.03108215, 0.9988204, -0.1169757, -0.119, -0.0002926588, 21.72941
13.84343, 0.001015626, 0.03083374, 0.9962049, 0.03546345, -0.02753651, 0.06068292, 21.63529
13.85993, 0.001259767, 0.03668152, 0.9966563, -0.1779512, -0.1799756, -0.0002926588, 21.77647
13.87993, 0.001015626, 0.03424194, 0.996861, -0.1474634, 0.1249025, 0.06068292, 21.72941
13.89993, -0.002158202, 0.03106995, 0.9956555, -0.1169757, -0.02753651, 0.1216585, 21.72941
13.91993, -0.006796874, 0.02838257, 0.9993074, -0.05599999, 0.1249025, 0.09117073, 21.72941
13.93993, 0.001259767, 0.02910583, 0.997652, -0.208439, -0.08851218, 0.09117073, 21.72941
13.95993, 0.001992188, 0.02984619, 0.9971153, 0.03546345, -0.05802441, -0.0002926588, 21.72941
13.97993, -0.002890624, 0.03229797, 1.001519, 0.03546345, 0.03343904, 0.2436098, 21.68236
14.01533, -0.003134765, 0.02741089, 1.0057, -0.02551222, 0.03343904, -0.06126827, 21.68236
14.02988, -0.003378905, 0.02350403, 1.00249, 0.096439, -0.08851218, 0.09117073, 21.68236
14.04362, 0.001992188, 0.03107605, 0.9910602, -0.1474634, 0.09441471, -0.06126827, 21.72941
14.05993, 0.001992188, 0.03692627, 1.004206, -0.208439, 0.2468537, -0.0002926588, 21.68236
14.07993, -0.002646483, 0.03059204, 0.9978808, 0.1269268, 0.1249025, 0.2740976, 21.82353
14.09993, -0.003378905, 0.03327637, 0.9844913, 0.3098537, -0.08851218, 0.1216585, 21.77647
14.11993, 0.004189454, 0.03156555, 1.006357, -0.02551222, 0.03343904, -0.06126827, 21.68236
14.13993, -0.0004492178, 0.03083618, 0.9990977, -0.1474634, -0.05802441, -0.1222439, 21.63529
14.15993, -0.002890624, 0.03253479, 1.006147, -0.05599999, -0.08851218, -0.1222439, 21.72941
14.17993, -0.003134765, 0.0305896, 1.012223, -0.2389269, 0.1553903, 0.1521463, 21.63529
14.21545, 0.001015626, 0.02570679, 1.000326, -0.1169757, 0.002951264, 0.06068292, 21.72941
14.23, -0.007773437, 0.03084229, 1.000308, -0.08648777, 0.03343904, 0.1826341, 21.63529
14.2438, -0.0009374991, 0.0318103, 0.9968864, -0.2389269, 0.03343904, 0.03019512, 21.72941
14.25993, -0.003867187, 0.02497742, 1.001024, 0.2183902, -0.02753651, 0.09117073, 21.77647
14.27993, 0.006875001, 0.02596009, 0.9976367, -0.1779512, 0.09441471, -0.03078049, 21.68236
14.29993, 0.000283204, 0.03888794, 0.9946815, 0.06595123, -0.119, 0.2740976, 21.77647
14.31993, -0.0006933585, 0.02936828, 1.004714, 0.1269268, 0.1249025, -0.1832195, 21.77647
14.33992, -0.004355468, 0.02667053, 1.002729, -0.02551222, 0.1858781, 0.03019512, 21.72941
14.35993, 0.0005273447, 0.03595764, 1.001013, -0.1779512, 0.002951264, -0.06126827, 21.77647
14.37993, 0.00248047, 0.03351624, 0.9956785, -0.208439, 0.03343904, -0.06126827, 21.63529
14.41566, -0.00118164, 0.03230041, 0.9968916, -0.05599999, 0.03343904, -0.1527317, 21.72941
14.43012, -0.001914062, 0.03155396, 0.9971204, -0.02551222, 0.1858781, 0.1521463, 21.72941
14.44393, -0.004355468, 0.02473206, 1.000547, -0.08648777, -0.1494877, 0.03019512, 21.63529
14.45993, -0.0002050772, 0.03083191, 1.007847, 0.096439, 0.1249025, -0.09175611, 21.77647
14.47993, 0.0005273447, 0.03009704, 0.9978706, -0.08648777, 0.06392682, 0.1216585, 21.72941
14.49993, -0.0004492178, 0.03278259, 0.9942073, -0.08648777, 0.1858781, 0.09117073, 21.72941
14.51992, -0.00118164, 0.03228943, 1.008118, -0.05599999, 0.03343904, 0.09117073, 21.72941
14.53992, -0.0004492178, 0.0330127, 1.002235, -0.02551222, 0.002951264, -0.06126827, 21.68236
14.55993, 0.001503907, 0.02547058, 0.9883467, 0.096439, 0.09441471, 0.03019512, 21.68236
14.57993, 3.906339e-05, 0.02766846, 1.00515, -0.1474634, 0.09441471, -0.0002926588, 21.68236
14.61577, 0.002968751, 0.03302063, 1.003961, -0.1474634, 0.03343904, 0.1216585, 21.72941
14.63022, -0.004599608, 0.03131897, 1.004667, 0.03546345, 0.002951264, -0.06126827, 21.72941
14.6441, -0.00118164, 0.02912048, 1.001538, 0.096439, -0.02753651, 0.1216585, 21.68236
14.65994, -0.0004492178, 0.02886963, 0.99518, 0.1269268, -0.02753651, 0.1521463, 21.72941
14.67993, 0.00272461, 0.03057251, 1.002704, -0.2389269, -0.02753651, -0.06126827, 21.63529
14.69993, -0.0006933585, 0.03254333, 1.002739, 0.06595123, 0.002951264, 0.1521463, 21.72941
14.71992, 0.006142579, 0.03033936, 0.9912979, -0.3303902, 0.1553903, -0.1527317, 21.72941
14.73993, 0.001503907, 0.03424438, 0.9934875, 0.06595123, 0.09441471, -0.1222439, 21.72941
14.75993, -0.005576171, 0.02790283, 1.001518, -0.05599999, 0.03343904, -0.1527317, 21.63529
14.77993, -0.0009374991, 0.02789978, 1.003738, -0.1474634, 0.002951264, 0.09117073, 21.72941
14.81593, -0.00533203, 0.03498169, 1.002989, -0.05599999, 0.1249025, 0.1521463, 21.68236
14.83035, -0.002890624, 0.03181396, 0.9954152, -0.1169757, 0.2163659, -0.06126827, 21.72941
14.84416, 0.004921876, 0.03301697, 1.00497, 0.004975557, -0.05802441, 0.09117073, 21.72941
14.85993, -0.002402343, 0.0274054, 0.9988383, -0.08648777, 0.2468537, -0.03078049, 21.68236
14.87993, -0.00508789, 0.03278198, 0.9924971, -0.1169757, 0.1249025, 0.03019512, 21.68236
14.89993, 0.003945313, 0.02669312, 0.9905312, -0.05599999, 0.09441471, -0.03078049, 21.72941
14.91993, 0.000283204, 0.03374756, 0.997362, 0.004975557, 0.1249025, 0.09117073, 21.63529
14.93993, 0.004189454, 0.03303467, 0.9963855, -0.05599999, 0.002951264, 0.1216585, 21.72941
14.95993, -0.004599608, 0.03107605, 1.002998, -0.08648777, 0.1553903, 0.03019512, 21.72941
14.97993, -0.0009374991, 0.0335144, 1.000803, -0.05599999, 0.03343904, 0.06068292, 21.77647
15.01626, -0.001669921, 0.03181213, 0.9983603, 0.06595123, -0.2104634, 0.1521463, 21.72941
