time,acc_x,acc_y,acc_z,gyro_x,gyro_y,gyro_z,temp
0.0, 0.002441406, -0.01586914, 0.8242188, 35.2439, -7.378049, 14.66463, 20.6
0.009948, -0.0078125, -0.01586914, 0.8242188, -2.408537, -1.25, 1.676829, 20.50588
0.01994, -0.03173828, -0.01074219, 0.8503418, -2.347561, -0.9756098, 1.341463, 20.69412
0.02993, -0.01342773, 0.004882813, 0.8063965, -0.4878049, -0.8231708, 1.310976, 20.50588
0.039927, -0.01416016, 0.002441406, 0.7849121, 1.25, -0.9146341, 1.463415, 20.50588
0.049936, -0.01342773, -0.004882813, 0.7854004, 0.8231708, 0.152439, 1.798781, 20.6
0.05993, -0.03271484, 0.01074219, 0.8225098, 0.8231708, 0.3658537, 1.615854, 20.6
0.06993199, -0.0324707, 0.002197266, 0.8266602, 1.646341, -0.09146341, 1.493902, 20.6
0.079934, -0.01855469, 0.001220703, 0.8237305, 1.920732, -0.1829268, 1.128049, 20.50588
0.089934, -0.03051758, 0.01464844, 0.8210449, 1.615854, -0.0304878, 0.4878049, 20.55294
0.105249, -0.02856445, 0.004638672, 0.8212891, 2.103659, 0.2134146, 0.09146341, 20.55294
0.114804, -0.03344727, 0.01245117, 0.8208008, 2.317073, 0.3353659, -0.304878, 20.6
0.124171, -0.02294922, 0.01025391, 0.8178711, 2.22561, 0.5182927, -0.2439024, 20.64706
0.133572, -0.02319336, 0.01464844, 0.8205566, 1.798781, 0.5182927, -0.5487805, 20.6
0.142951, -0.02539063, 0.008300781, 0.815918, 1.737805, 0.304878, -0.4268293, 20.69412
0.152351, -0.03100586, 0.003417969, 0.833252, 1.615854, 0.3353659, -0.5487805, 20.64706
0.161717, -0.02929688, 0.01000977, 0.8430176, 1.646341, 0.4268293, -0.4878049, 20.50588
0.171128, -0.02612305, 0.009277344, 0.8190918, 1.067073, -0.06097561, -0.3963415, 20.64706
0.180456, -0.03662109, 0.01586914, 0.8242188, 0.3963415, -0.4268293, -0.5487805, 20.64706
0.189931, -0.02661133, 0.01196289, 0.8261719, -0.3353659, -0.9146341, -0.4268293, 20.6
0.204989, -0.02246094, 0.01098633, 0.824707, -1.371951, -1.615854, -0.4878049, 20.64706
0.214498, -0.02734375, 0.01196289, 0.807373, -1.280488, -1.280488, -0.4878049, 20.64706
0.223898, -0.015625, 0.006835938, 0.826416, -1.493902, -1.219512, -0.4573171, 20.69412
0.233328, -0.02880859, 0.008789063, 0.8237305, -1.280488, -1.25, -0.7317073, 20.6
0.242751, -0.02734375, 0.009033203, 0.8220215, -1.554878, -1.432927, -0.5792683, 20.6
0.2521, -0.02539063, 0.01049805, 0.8208008, -1.798781, -1.554878, -0.5792683, 20.69412
0.261514, -0.02368164, 0.0144043, 0.8259277, -1.981707, -1.798781, -0.4878049, 20.64706
0.27087, -0.02661133, 0.006347656, 0.8200684, -1.890244, -1.646341, -0.5182927, 20.6
0.280245, -0.02075195, 0.01489258, 0.8066406, -1.737805, -1.128049, -0.5182927, 20.64706
0.289931, -0.01708984, 0.008300781, 0.807373, -0.7012195, -0.6707317, -0.5182927, 20.69412
0.305132, -0.01928711, 0.01123047, 0.8134766, 0.4268293, 0.1829268, -0.3353659, 20.64706
0.31463, -0.02197266, 0.007080078, 0.8254395, 0.2743902, -0.8841463, -0.6402439, 20.69412
0.324045, -0.03564453, 0.0168457, 0.7875977, -1.341463, -0.7012195, -0.5182927, 20.6
0.333469, -0.03662109, 0.008056641, 0.8227539, -1.036585, -1.036585, -0.5182927, 20.64706
0.342844, -0.03125, 0.01220703, 0.8261719, -1.25, -1.067073, -0.4573171, 20.74118
0.352285, -0.02929688, 0.008300781, 0.8178711, -1.280488, -1.036585, -0.4878049, 20.6
0.361651, -0.03076172, 0.01171875, 0.8234863, -0.945122, -1.219512, -0.4878049, 20.64706
0.371055, -0.02929688, 0.01367188, 0.8188477, -1.189024, -1.158537, -0.4268293, 20.69412
0.380446, -0.02490234, 0.009765625, 0.8149414, -0.9756098, -1.036585, -0.3658537, 20.64706
0.389931, -0.02709961, 0.01293945, 0.8105469, -1.189024, -1.128049, -0.4878049, 20.64706
0.405238, -0.02905273, 0.01098633, 0.8164063, -0.9756098, -1.158537, -0.3658537, 20.64706
0.414754, -0.02270508, 0.01660156, 0.8186035, -1.219512, -1.25, -0.5487805, 20.6
0.424113, -0.0222168, 0.01367188, 0.8220215, -1.219512, -1.097561, -0.5487805, 20.69412
0.433559, -0.0246582, 0.01538086, 0.8286133, -1.219512, -1.280488, -0.3658537, 20.69412
0.442939, -0.02636719, 0.01123047, 0.8146973, -1.280488, -1.128049, -0.5182927, 20.69412
0.452376, -0.02197266, 0.005126953, 0.8266602, -1.310976, -1.158537, -0.5182927, 20.69412
0.461777, -0.02270508, 0.008789063, 0.8200684, -1.128049, -1.097561, -0.5182927, 20.6
0.471119, -0.02441406, 0.01171875, 0.8249512, -1.25, -1.189024, -0.4878049, 20.64706
0.480496, -0.02416992, 0.01098633, 0.8154297, -1.158537, -1.006098, -0.5182927, 20.6
0.489935, -0.02758789, 0.01245117, 0.8215332, -1.189024, -1.25, -0.6097561, 20.6
0.505404, -0.02514648, 0.008300781, 0.8137207, -1.189024, -1.158537, -0.5487805, 20.64706
0.514959, -0.02758789, 0.01049805, 0.8217773, -1.310976, -1.128049, -0.6402439, 20.74118
0.524387, -0.02807617, 0.01733398, 0.8198242, -1.128049, -1.067073, -0.6097561, 20.69412
0.533804, -0.02075195, 0.01782227, 0.8479004, -1.493902, -1.707317, -0.4878049, 20.74118
0.543189, -0.01879883, 0.01269531, 0.8181152, -1.402439, -2.195122, -0.7012195, 20.69412
0.552552, -0.01123047, 0.02416992, 0.7670898, -3.536585, -0.8536586, -0.7012195, 20.74118
0.561905, -0.02661133, 0.004394531, 0.8007813, -0.7012195, -0.1829268, -0.3963415, 20.64706
0.571333, -0.01733398, 0.007568359, 0.8239746, 0.9756098, 0.4268293, -0.4573171, 20.69412
0.580675, -0.02001953, 0.02929688, 0.8764648, -1.036585, -2.073171, -0.4268293, 20.69412
0.590053, -0.01928711, 0.009521484, 0.8249512, -1.25, -1.189024, -0.4878049, 20.64706
0.609469, -0.02539063, 0.01367188, 0.8098145, -0.8841463, -0.7317073, -0.5182927, 20.78824
0.6189651, -0.03564453, 0.01782227, 0.8349609, -1.310976, -1.158537, -0.4878049, 20.74118
0.628293, -0.02368164, 0.01293945, 0.8205566, -1.402439, -1.158537, -0.6097561, 20.69412
0.637734, -0.02416992, 0.006103516, 0.815918, -1.067073, -1.128049, -0.5792683, 20.69412
0.647122, -0.02270508, 0.008056641, 0.8244629, -1.219512, -1.158537, -0.4878049, 20.74118
0.65659, -0.02148438, 0.006835938, 0.8188477, -1.707317, -1.646341, -0.5487805, 20.69412
0.665941, -0.0246582, 0.01367188, 0.817627, -1.158537, -0.8841463, -0.4878049, 20.74118
0.67531, -0.03173828, 0.006347656, 0.8115234, -1.128049, -0.9146341, -0.5182927, 20.69412
0.684698, -0.03149414, 0.01171875, 0.815918, -1.036585, -1.097561, -0.4268293, 20.69412
0.694096, -0.0234375, 0.0078125, 0.8212891, -1.097561, -0.9146341, -0.5182927, 20.83529
0.713766, -0.02685547, 0.01000977, 0.8193359, -0.9146341, -1.158537, -0.5182927, 20.78824
0.7233171, -0.02832031, 0.015625, 0.8144531, -1.128049, -1.097561, -0.5182927, 20.74118
0.732743, -0.02368164, 0.009277344, 0.8242188, -1.219512, -0.9756098, -0.3963415, 20.83529
0.742168, -0.02392578, 0.01147461, 0.8237305, -1.219512, -1.219512, -0.6402439, 20.69412
0.751547, -0.02319336, 0.01196289, 0.814209, -1.310976, -0.945122, -0.5792683, 20.78824
0.760992, -0.02929688, 0.01416016, 0.8164063, -1.25, -3.018293, -0.6097561, 20.83529
0.770389, -0.02075195, 0.01391602, 0.7851563, -1.189024, -0.2439024, -0.5182927, 20.78824
0.779741, -0.03222656, -0.0009765625, 0.8164063, -1.036585, -0.6707317, -0.6707317, 20.83529
0.789154, -0.04223633, 0.0144043, 0.828125, -3.47561, -3.658537, -0.8231708, 20.69412
0.798554, -0.02880859, 0.02734375, 0.8234863, -7.469512, -4.329268, -0.8841463, 20.74118
0.8184091, -0.006347656, -0.02172852, 0.7590332, 0.945122, 0.3353659, -0.304878, 20.69412
0.827952, -0.02587891, 0.01147461, 0.8156738, 0.304878, -0.2743902, -0.3963415, 20.83529
0.837335, -0.02636719, 0.008789063, 0.8337402, -0.09146341, -0.7926829, -0.6097561, 20.78824
0.846743, -0.02563477, 0.01489258, 0.8212891, -0.6402439, -0.945122, -0.5792683, 20.83529
0.856071, -0.02539063, 0.01586914, 0.8225098, -0.7012195, -0.945122, -0.4573171, 20.78824
0.865527, -0.02832031, 0.0078125, 0.8242188, -1.280488, -1.310976, -0.4268293, 20.78824
0.874961, -0.02124023, 0.005615234, 0.8291016, -2.5, -1.707317, -1.341463, 20.74118
0.8843659, -0.01806641, 0.1323242, 0.822998, -1.585366, -1.189024, -0.3963415, 20.74118
0.893778, -0.04150391, 0.01708984, 0.8000488, -1.310976, -1.585366, -0.5487805, 20.78824
0.903131, -0.02587891, 0.01074219, 0.8271484, -1.890244, -1.798781, -0.4878049, 20.74118
0.92316, -0.007080078, -0.001220703, 0.7976074, -2.22561, -2.987805, -0.3353659, 20.69412
0.9326631, 0.0, 0.01757813, 0.8181152, -3.231707, -4.390244, -0.3353659, 20.74118
0.942048, -0.04272461, -0.004150391, 0.7595215, 0.5182927, -2.286585, -0.7926829, 20.88235
0.951472, -0.01586914, 0.01733398, 0.7756348, 1.128049, -1.554878, -0.5182927, 20.78824
0.960879, -0.01318359, 0.05053711, 0.8078613, 1.859756, -0.6402439, -0.4268293, 20.83529
0.970254, -0.01391602, -0.02856445, 0.8149414, 0.7012195, 0.0, -1.006098, 20.78824
0.979613, -0.05444336, -0.005615234, 0.8720703, -1.432927, -1.981707, -1.432927, 20.74118
0.989026, -0.03515625, -0.0234375, 0.9108887, -5.152439, -5.579268, -2.164634, 20.74118
0.998433, -0.002685547, 0.02172852, 0.9162598, -9.878049, -8.871951, -0.4573171, 20.78824
1.007827, 0.01879883, -0.004882813, 0.9511719, -13.56707, -14.39024, -0.7317073, 20.78824
1.028056, -0.03564453, 0.01806641, 0.9785156, -17.07317, -28.5061, -0.304878, 20.69412
1.037566, -0.0402832, -0.01342773, 1.02832, -18.59756, -35.85366, -0.6402439, 20.88235
1.047023, -0.03662109, -0.02880859, 1.092773, -18.14024, -42.83536, -1.006098, 20.69412
1.056465, -0.0390625, -0.05786133, 1.040283, -15.51829, -54.32927, -1.25, 20.83529
1.065925, -0.0300293, -0.06982422, 1.060059, -10.57927, -66.58536, -2.957317, 20.78824
1.07533, -0.003173828, -0.09472656, 0.956543, -7.621952, -68.90244, -1.768293, 20.83529
1.084665, 0.07104492, -0.007080078, 0.7729492, -10.94512, -41.25, 1.981707, 20.74118
1.094061, 0.1184082, -0.01660156, 0.6875, -14.05488, -2.77439, 8.414635, 20.83529
1.103406, 0.09375, -0.03393555, 0.692627, -17.7439, 28.20122, 13.71951, 20.83529
1.112782, 0.01538086, -0.08056641, 0.8024902, -21.28049, 38.93293, 14.93903, 20.78824
1.133197, -0.01733398, -0.1777344, 1.247314, 10.7622, 16.95122, 1.25, 20.78824
1.142706, 0.04174805, -0.1096191, 1.155518, 28.71951, 15.39634, -4.481708, 20.78824
1.152144, 0.02978516, -0.05688477, 1.05835, 43.93293, 20.45732, -5.335366, 20.74118
1.161506, 0.03930664, -0.002197266, 0.9960938, 52.34756, 30.85366, -4.481708, 20.78824
1.170884, 0.02783203, 0.01416016, 1.007813, 55.94512, 38.68903, -4.359756, 20.69412
1.180182, -0.009521484, 0.01953125, 1.046875, 52.68293, 42.71342, -4.817073, 20.83529
1.189553, -0.06176758, 0.06860352, 0.873291, 42.68293, 44.57317, -2.408537, 20.78824
1.198893, -0.09423828, 0.03857422, 0.8747559, 35.42683, 35.0, 0.7317073, 20.78824
1.208224, -0.1123047, 0.03515625, 0.8295898, 24.42073, 22.31707, 2.621951, 20.78824
1.217615, -0.1274414, 0.01538086, 0.7512207, 8.536586, 11.89024, 5.457317, 20.83529
1.238109, -0.1259766, 0.008789063, 0.7595215, -20.85366, -8.109756, 10.0, 20.78824
1.247671, -0.1015625, -0.02490234, 0.8288574, -28.14025, -15.33537, 9.512196, 20.88235
1.257094, -0.0612793, -0.03344727, 0.9228516, -30.97561, -24.05488, 8.140244, 20.88235
1.266545, -0.06298828, -0.01342773, 0.9921875, -32.59146, -35.12195, 6.158537, 20.74118
1.275951, -0.06640625, -0.002685547, 1.051758, -33.47561, -46.67683, 4.268293, 20.78824
1.285338, -0.05517578, -0.001708984, 1.037109, -33.65854, -52.37805, 3.536585, 20.78824
1.294745, 0.003417969, 0.001464844, 0.9064941, -31.37195, -44.7561, 5.27439, 20.78824
1.304103, 0.04492188, 0.02539063, 0.8173828, -30.12195, -21.4939, 6.768293, 20.88235
1.313501, 0.002441406, -0.3378906, 1.585205, 16.55488, -33.20122, 7.347561, 20.83529
1.322942, 0.1533203, -0.15625, 0.947998, 36.7378, 38.84146, 7.591464, 20.74118
1.343697, 0.05541992, 0.1052246, 0.859375, 33.75, 95.39635, 6.707317, 20.88235
1.353269, -0.003662109, 0.1879883, 0.4511719, 1.585366, 106.4024, 7.378049, 20.83529
1.362642, -0.08032227, -0.05322266, 0.9619141, -3.536585, 74.90854, -0.945122, 20.88235
1.372068, -0.07910156, -0.06518555, 0.8786621, -14.14634, 43.20122, -9.207317, 20.78824
1.381482, -0.1201172, -0.03833008, 0.9133301, -24.7561, 11.25, -12.53049, 20.83529
1.390882, -0.1286621, 0.02856445, 0.8149414, -32.2561, -12.31707, -9.72561, 20.74118
1.400262, -0.1220703, 0.01074219, 0.8642578, -35.85366, -30.97561, -7.957317, 20.83529
1.409587, -0.06298828, -0.008789063, 0.8410645, -24.96951, -26.98171, 0.304878, 20.78824
1.418972, -0.01855469, -0.01660156, 0.8779297, -20.45732, -9.481708, 1.280488, 20.78824
1.428379, -0.01538086, 0.009765625, 0.8532715, -18.93293, -2.256098, 5.060976, 20.83529
1.449274, -0.0004882813, -0.02099609, 0.6518555, -14.08537, 15.85366, 7.896342, 20.83529
1.458809, -0.046875, -0.02587891, 0.6433105, -11.25, 23.23171, 5.121951, 20.83529
1.468261, -0.0144043, -0.05322266, 0.6225586, -10.42683, 29.87805, 2.164634, 20.83529
1.477686, -0.02075195, -0.06152344, 0.6572266, -12.5, 32.62195, -3.567073, 20.88235
1.48709, -0.01928711, -0.03662109, 0.6064453, -12.86585, 30.7622, -8.871951, 20.83529
1.496531, -0.01757813, -0.01416016, 0.5292969, -9.847561, 27.5, -11.34146, 20.88235
1.505939, 0.01000977, -0.01245117, 0.4882813, -3.231707, 24.20732, -13.38415, 20.78824
1.51532, 0.04638672, 0.002929688, 0.5544434, 2.77439, 18.5061, -13.81098, 20.74118
1.52467, 0.01098633, 0.04663086, 0.6437988, 5.152439, 7.164634, -13.04878, 20.83529
1.533986, -0.04248047, 0.0793457, 0.7382813, 3.932927, -11.64634, -10.12195, 20.78824
1.555045, -0.1057129, 0.09130859, 0.8352051, -2.042683, -57.16464, 0.0304878, 20.88235
1.564621, -0.1469727, 0.07617188, 0.8193359, -13.17073, -60.85366, -1.493902, 20.78824
1.574079, -0.07788086, 0.08056641, 0.6914063, -22.5, -53.17073, -1.493902, 20.88235
1.583521, -0.01000977, 0.06274414, 0.5563965, -29.17683, -39.05488, -2.347561, 20.88235
1.592951, -0.006347656, 0.05664063, 0.4902344, -32.71342, -23.78049, -3.262195, 20.83529
1.602356, 0.07080078, 0.05322266, 0.4755859, -33.17073, -11.28049, 1.646341, 20.78824
1.611722, 0.1665039, 0.02954102, 0.5107422, -30.45732, -2.256098, 4.115854, 20.83529
1.621112, 0.1628418, 0.004394531, 0.4953613, -25.60976, 7.439024, 5.853659, 20.88235
1.630445, 0.05737305, -0.04345703, 0.520752, -15.85366, 13.47561, 5.0, 20.88235
1.63973, 0.008789063, -0.09033203, 0.5490723, -3.140244, 14.17683, 3.719512, 20.83529
1.660975, 0.015625, -0.09741211, 0.7944336, 17.92683, -8.140244, 3.810976, 20.83529
1.670541, 0.04907227, -0.06616211, 0.8652344, 13.14024, -22.71342, 6.036585, 20.88235
1.679946, 0.0234375, -0.04125977, 0.8999023, 4.390244, -35.79268, 9.695122, 20.74118
1.689322, 0.05297852, -0.01000977, 0.8745117, -5.396342, -43.20122, 15.36585, 20.88235
1.698752, 0.06689453, -0.006835938, 0.8608398, -12.71342, -45.54878, 20.82317, 20.88235
1.708165, 0.001220703, -0.03686523, 0.6853027, -11.12805, -42.77439, 20.4878, 20.83529
1.717567, -0.1533203, -0.07348633, 0.5610352, -0.8841463, -38.14024, 16.03659, 20.92941
1.726951, -0.1738281, -0.007080078, 0.5664063, 7.957317, -30.82317, 12.98781, 20.88235
1.73633, -0.078125, 0.0234375, 0.5754395, 12.10366, -17.46951, 11.40244, 20.78824
1.745676, 0.03955078, 0.04077148, 0.671875, 3.780488, 21.61586, 7.256098, 20.78824
1.767089, 0.07397461, -0.03710938, 0.6223145, -0.2134146, 143.75, 6.341464, 20.88235
1.776625, 0.07983398, -0.006591797, 0.7243652, 7.835366, 178.2317, 9.664635, 20.92941
1.786008, 0.01171875, -0.06274414, 0.8598633, 15.15244, 192.378, 8.658537, 20.83529
1.795409, -0.104248, -0.1203613, 0.9870605, 21.79878, 191.0366, 4.908537, 20.88235
1.804753, -0.1691895, -0.08691406, 1.010742, 23.2622, 187.3171, -0.0304878, 20.83529
1.81419, -0.1994629, -0.04199219, 1.068604, 25.06098, 181.0976, -2.682927, 20.88235
1.823589, -0.1811523, -0.02636719, 1.044678, 22.22561, 191.311, -5.97561, 20.83529
1.832949, -0.2375488, -0.02685547, 0.8464355, 20.73171, 219.2683, -9.207317, 20.88235
1.842329, -0.2324219, -0.02563477, 0.7097168, 19.08537, 249.6037, -11.58537, 20.74118
1.851659, -0.2287598, -0.01831055, 0.5002441, 17.16463, 286.6768, -8.658537, 20.78824
1.873222, -0.3823242, 0.06298828, 0.6218262, 12.31707, 330.4573, -4.085366, 20.78824
1.882811, -0.4150391, 0.05517578, 0.5522461, 6.493903, 323.2012, -2.134146, 20.88235
1.892281, -0.467041, 0.05566406, 0.5993652, -0.7012195, 303.9329, -3.384146, 20.88235
1.90172, -0.4836426, 0.1323242, 0.4853516, -13.84146, 305.061, -5.914634, 20.74118
1.911116, -0.6201172, 0.06469727, 0.4296875, -26.34146, 328.2317, -7.987805, 20.88235
1.920508, -0.8303223, -0.01318359, 0.494873, -31.76829, 345.3049, -8.353659, 20.83529
1.929852, -0.9289551, 0.0009765625, 0.5576172, -34.20732, 345.1829, -6.432927, 20.88235
1.939214, -0.9194336, 0.08032227, 0.527832, -35.91464, 333.9024, -0.09146341, 20.83529
1.948531, -0.8708496, 0.1765137, 0.4680176, -35.15244, 314.8171, 12.59146, 20.88235
1.95787, -0.8217773, 0.09643555, 0.5620117, -30.18293, 274.9695, 20.4878, 20.83529
1.979629, -0.8603516, -0.1442871, 0.6965332, -16.25, 152.6829, 14.72561, 20.88235
1.989202, -0.8703613, -0.1467285, 0.6789551, -12.19512, 94.45123, 10.73171, 20.97647
1.998662, -0.8532715, -0.06860352, 0.6223145, -9.45122, 38.71951, 8.75, 20.83529
2.008046, -0.8173828, -0.04492188, 0.479248, -7.896342, -2.134146, 8.170732, 20.78824
2.017429, -0.7705078, -0.01391602, 0.3044434, -6.432927, -17.68293, 6.615854, 20.88235
2.026847, -0.7827148, -0.02636719, 0.1340332, -3.841464, -3.810976, 5.182927, 20.83529
2.036268, -0.7385254, -0.006103516, -0.008056641, -3.414634, 29.90854, 5.304878, 20.92941
2.045647, -0.7480469, -0.01196289, 0.01782227, -5.182927, 67.71342, 0.7317073, 20.83529
2.055009, -0.7753906, -0.001464844, 0.03759766, -6.158537, 100.4268, 1.737805, 20.78824
2.064357, -0.8532715, 0.01074219, 0.1044922, -4.847561, 116.5854, 4.603659, 20.74118
2.086278, -0.8164063, -0.03808594, 0.1721191, -0.3963415, 111.311, 6.615854, 20.97647
2.09586, -0.8134766, -0.07177734, 0.170166, 0.9146341, 102.1341, 3.932927, 20.78824
2.105356, -0.8422852, -0.09130859, 0.204834, 0.6402439, 83.96342, -0.8231708, 20.78824
2.114799, -0.8632813, -0.1083984, 0.2668457, -0.7621951, 56.58536, -6.890244, 20.83529
2.124166, -0.9150391, -0.1166992, 0.2717285, -2.317073, 27.62195, -12.13415, 20.78824
2.133551, -0.9372559, -0.09985352, 0.2436523, -2.865854, 2.743902, -15.09146, 20.88235
2.142931, -0.9375, -0.07299805, 0.1604004, -3.353659, -10.18293, -17.37805, 20.78824
2.15231, -0.904541, -0.07006836, 0.1010742, -4.02439, -15.51829, -18.14024, 20.88235
2.161664, -0.9165039, -0.04785156, 0.1264648, -4.390244, -21.92073, -18.35366, 20.83529
2.171104, -0.895752, -0.007568359, 0.1247559, -6.829268, -21.61586, -18.10976, 20.74118
2.193266, -0.8618164, 0.01123047, 0.04907227, -6.707317, -10.03049, -8.628049, 20.88235
2.202912, -0.8615723, 0.01000977, 0.0793457, -4.115854, -8.353659, -5.060976, 20.97647
2.212443, -0.8566895, -0.01318359, 0.1025391, -2.317073, -7.896342, -2.621951, 20.97647
2.221895, -0.8916016, -0.01953125, 0.0690918, -1.52439, -3.75, -2.957317, 20.78824
2.231383, -0.8967285, -0.03564453, 0.0559082, -0.9756098, 3.810976, -2.073171, 20.92941
2.240808, -0.8945313, -0.05151367, 0.05371094, 0.09146341, 12.80488, -0.8231708, 20.88235
2.250131, -0.9086914, -0.0793457, 0.02197266, 2.5, 25.15244, 1.006098, 20.88235
2.259398, -0.942627, -0.1098633, 0.0625, 5.396342, 34.96951, 1.829268, 20.83529
2.268746, -0.9465332, -0.1052246, 0.09692383, 7.286585, 36.82927, 2.286585, 20.88235
2.278123, -0.9455566, -0.08398438, 0.2111816, 7.103659, 23.2622, 2.134146, 20.83529
2.300386, -1.022217, -0.001708984, 0.5742188, -1.676829, -106.6768, 0.3658537, 20.74118
2.310036, -1.083496, 0.002197266, 0.6367188, -7.926829, -195.0, -1.798781, 20.88235
2.319528, -1.068604, -0.0222168, 0.4465332, -12.19512, -256.0671, -1.646341, 20.92941
2.328941, -0.9650879, -0.05688477, 0.2141113, -14.60366, -278.9024, -3.231707, 20.83529
2.338362, -0.8745117, -0.06103516, 0.1791992, -14.35976, -283.0488, -3.597561, 20.78824
2.347783, -0.8725586, -0.0637207, 0.2404785, -14.90854, -285.8841, -3.47561, 20.92941
2.357188, -0.7980957, 0.0078125, 0.3544922, -16.58537, -288.0793, -2.530488, 20.88235
2.366579, -0.7382813, -0.01513672, 0.4206543, -17.65244, -286.6464, -0.5182927, 20.88235
2.375989, -0.71875, -0.06835938, 0.3747559, -12.53049, -282.0732, 3.597561, 20.83529
2.385338, -0.7480469, -0.112793, 0.4272461, -1.798781, -280.4573, 7.256098, 20.88235
2.40783, -0.888916, -0.09545898, 0.7368164, 33.65854, -352.8964, 18.81098, 20.88235
2.417553, -0.8562012, -0.1015625, 0.8439941, 39.72561, -401.7378, 17.34756, 20.83529
2.427079, -0.9191895, -0.006591797, 0.8635254, 33.81098, -449.1768, 12.83537, 20.97647
2.436442, -0.8881836, -0.01416016, 0.795166, 17.04268, -467.561, 9.329268, 20.92941
2.445865, -0.7851563, -0.04589844, 0.5178223, 1.158537, -465.6403, 0.8841463, 20.92941
2.455248, -0.7258301, -0.1621094, 0.7563477, -17.5, -459.6646, -9.115854, 20.83529
2.464607, -0.6108398, -0.152832, 0.4633789, -37.28659, -427.4695, -20.06098, 20.78824
2.473995, -0.4084473, -0.1096191, 0.4057617, -52.28659, -386.1585, -26.95122, 20.78824
2.483354, -0.1845703, -0.02685547, 0.4504395, -54.63415, -349.1768, -25.45732, 20.83529
2.492778, 0.06591797, 0.07006836, 0.4057617, -65.79269, -312.378, -15.2439, 20.83529
2.51545, 0.1828613, 0.1147461, 0.4729004, -51.12805, -235.0915, 7.042683, 20.88235
2.525112, 0.1696777, 0.1186523, 0.4936523, -26.64634, -201.7683, 23.78049, 20.97647
2.534564, 0.1501465, 0.08227539, 0.6481934, -4.146341, -171.6768, 34.69512, 20.78824
2.543952, 0.1359863, -0.0002441406, 0.6860352, 13.84146, -144.2683, 36.21951, 20.88235
2.553314, 0.2045898, -0.0234375, 0.7897949, 17.9878, -127.1646, 33.38415, 20.83529
2.562748, 0.234375, -0.08032227, 0.8544922, 1.25, -117.9573, 22.40854, 20.78824
2.572096, 0.253418, -0.130127, 0.8647461, -15.79268, -124.6341, 13.84146, 20.83529
2.581477, 0.1928711, -0.2285156, 0.8874512, -20.36586, -141.25, 4.939024, 20.88235
2.590829, 0.2177734, -0.2888184, 0.7429199, -11.25, -153.5671, -1.280488, 20.83529
2.600188, 0.3684082, -0.2231445, 0.6748047, 0.6707317, -152.561, -6.646342, 20.88235
2.622884, 0.3818359, 0.03344727, 0.8027344, 10.48781, -126.8597, -12.07317, 20.88235
2.632551, 0.3647461, 0.009765625, 0.8220215, 15.2439, -121.5549, -10.15244, 20.92941
2.642085, 0.3427734, -0.03320313, 0.7182617, 22.2561, -109.1159, -8.231708, 20.78824
2.651466, 0.3986816, -0.05224609, 0.6259766, 29.14634, -106.4634, -7.77439, 20.92941
2.660854, 0.411377, -0.01513672, 0.7539063, 29.26829, -115.6707, -7.743903, 20.88235
2.67028, 0.4245605, -0.03442383, 0.7873535, 21.55488, -118.628, -8.871951, 20.92941
2.679597, 0.4724121, -0.05371094, 0.7978516, 12.53049, -130.2439, -10.06098, 20.83529
2.68901, 0.4643555, -0.157959, 0.9455566, 7.256098, -156.4634, -13.07927, 20.97647
2.698436, 0.5327148, -0.1179199, 1.019287, 3.841464, -179.6342, -16.15854, 20.92941
2.707818, 0.5524902, -0.07885742, 0.9414063, -0.6097561, -185.4268, -14.39024, 20.97647
2.730893, 0.4938965, -0.009521484, 0.546875, 0.5487805, -127.8659, -11.18903, 20.83529
2.740556, 0.6054688, 0.03320313, 0.4833984, 6.128049, -101.1585, -7.621952, 20.83529
2.750039, 0.5556641, 0.01000977, 0.5793457, 8.932927, -86.95123, -3.04878, 20.88235
2.759375, 0.6340332, 0.06469727, 0.5319824, 10.88415, -77.0122, 3.658537, 20.88235
2.76869, 0.6787109, 0.04492188, 0.6262207, 9.146341, -69.45122, 7.347561, 20.83529
2.778021, 0.6459961, 0.0456543, 0.6965332, 6.768293, -64.08536, 9.695122, 20.78824
2.787345, 0.6347656, -0.01855469, 0.6071777, 1.95122, -52.62195, 9.969512, 20.83529
2.796739, 0.6142578, -0.07299805, 0.6291504, 1.25, -37.34756, 7.957317, 20.92941
2.806026, 0.6638184, -0.09960938, 0.6572266, 0.4268293, -26.15854, 4.45122, 20.97647
2.815363, 0.6499023, -0.08105469, 0.6984863, -3.018293, -25.91464, 2.652439, 20.92941
2.838552, 0.6982422, -0.0246582, 0.6533203, -9.878049, -6.859756, 1.036585, 20.74118
2.848181, 0.713623, -0.0246582, 0.6118164, -10.03049, 3.414634, 1.097561, 20.83529
2.857697, 0.690918, -0.04638672, 0.5737305, -7.469512, 9.603659, 1.95122, 20.78824
2.867106, 0.6911621, -0.03613281, 0.5786133, -6.189024, 6.310976, 2.682927, 20.78824
2.876505, 0.6394043, -0.04467773, 0.6489258, -8.597561, -6.615854, 2.408537, 20.92941
2.885951, 0.6298828, -0.06811523, 0.5915527, -9.939025, -13.81098, 1.310976, 20.88235
2.895311, 0.6132813, -0.07958984, 0.6494141, -10.06098, -16.58537, 0.7317073, 21.02353
2.90467, 0.6252441, -0.09619141, 0.6179199, -8.04878, -15.06098, 0.7317073, 20.83529
2.91408, 0.6599121, -0.07202148, 0.5773926, -6.79878, -10.82317, 0.5487805, 20.88235
2.923475, 0.6586914, -0.07958984, 0.5639648, -5.396342, -6.432927, 0.7621951, 20.92941
2.946837, 0.7038574, -0.08764648, 0.5737305, 0.152439, 23.5061, 0.06097561, 21.02353
2.956439, 0.7387695, -0.08813477, 0.5585938, 2.012195, 49.63415, -0.5487805, 20.88235
2.96595, 0.7600098, -0.06542969, 0.5810547, 1.707317, 75.94512, -1.493902, 20.92941
2.975281, 0.7097168, -0.03369141, 0.6794434, -2.835366, 94.48172, -1.920732, 20.88235
2.984643, 0.6716309, -0.04858398, 0.7365723, -6.920732, 108.9329, -1.128049, 20.92941
2.994022, 0.6669922, -0.08642578, 0.6923828, -4.603659, 123.1098, -1.006098, 20.78824
3.003426, 0.5830078, -0.1254883, 0.5825195, 3.628049, 133.1707, -0.945122, 20.92941
3.012755, 0.4746094, -0.1437988, 0.6374512, 10.09146, 132.8049, -3.20122, 20.92941
3.022068, 0.4309082, -0.07568359, 0.6435547, 13.38415, 135.0305, -3.719512, 20.88235
3.031455, 0.5024414, -0.08374023, 0.6679688, 11.03659, 140.8537, -2.195122, 20.97647
3.054993, 0.4260254, -0.06152344, 0.8457031, 5.457317, 146.6768, -0.4878049, 20.88235
3.06466, 0.4638672, -0.03271484, 0.7687988, 4.359756, 164.9695, 0.6707317, 20.97647
3.074163, 0.4990234, -0.04711914, 0.7077637, 5.0, 189.9695, 2.408537, 20.97647
3.083557, 0.4975586, -0.04174805, 0.6945801, 8.810976, 210.5793, 3.231707, 20.92941
3.092944, 0.4694824, -0.1044922, 0.7253418, 15.70122, 223.9024, 2.530488, 20.88235
3.102357, 0.3532715, -0.09667969, 0.7438965, 19.90854, 224.8476, 3.993902, 21.02353
3.11171, 0.28125, -0.09521484, 0.8959961, 20.60976, 210.7927, 2.926829, 20.97647
3.12107, 0.1672363, -0.03979492, 1.03125, 17.56098, 187.378, 3.780488, 20.92941
3.130446, 0.130127, -0.08569336, 0.9851074, 11.12805, 162.6219, 2.347561, 20.97647
3.139824, 0.1464844, -0.009277344, 1.008545, 4.664634, 142.2561, 5.243903, 20.92941
3.163557, 0.1203613, -0.09179688, 0.939209, -2.957317, 108.9024, 6.95122, 20.83529
3.173204, 0.08129883, -0.01611328, 0.8081055, -7.957317, 114.0244, 7.012195, 20.92941
3.182649, 0.1064453, -0.04272461, 0.6772461, -8.445122, 125.9146, 7.286585, 20.88235
3.192034, 0.01855469, -0.1281738, 0.7592773, -4.969512, 131.5854, 6.707317, 20.88235
3.201463, 0.02514648, -0.06567383, 0.6950684, 1.189024, 127.1037, 7.286585, 21.02353
3.210852, -0.04663086, -0.1303711, 0.673584, 6.371952, 121.5854, 8.109756, 20.83529
3.22019, -0.1166992, -0.1052246, 0.6672363, 9.481708, 108.9634, 7.987805, 20.97647
3.229501, -0.1328125, -0.1577148, 0.703125, 8.04878, 88.38415, 4.786585, 20.92941
3.238855, -0.144043, -0.06787109, 0.7414551, 5.853659, 57.77439, 5.518293, 20.88235
3.248237, 0.001953125, 0.04125977, 0.7104492, -1.493902, 27.62195, 8.628049, 20.78824
3.272148, 0.0009765625, 0.03369141, 0.7314453, -4.45122, -14.35976, 15.57927, 20.88235
3.281906, -0.0002441406, 0.005371094, 0.7353516, -4.237805, -19.2378, 17.5, 20.88235
3.291399, 0.0002441406, -0.004150391, 0.7390137, -2.77439, -18.9939, 20.03049, 20.88235
3.300882, -0.03540039, -0.01318359, 0.7858887, 2.164634, -17.16463, 24.02439, 20.92941
3.310239, -0.06738281, 0.02758789, 0.7346191, 7.256098, -14.78659, 27.95732, 20.88235
3.31955, -0.05957031, -0.07055664, 0.6765137, 13.78049, -15.48781, 31.64634, 20.88235
3.328895, -0.02636719, -0.1040039, 0.8183594, 21.0061, -19.63415, 32.5, 20.92941
3.338244, -0.002685547, -0.04101563, 0.7807617, 25.12195, -24.20732, 35.4878, 20.88235
3.347628, 0.0078125, -0.02246094, 0.6464844, 24.48171, -22.04268, 38.78049, 20.83529
3.356999, 0.05688477, 0.08154297, 0.7148438, 14.87805, 4.085366, 43.38415, 20.97647
3.381067, 0.07885742, 0.0949707, 0.6533203, -21.31098, 81.64635, 42.16464, 20.92941
3.390728, 0.0925293, 0.03710938, 0.7504883, -29.93903, 88.9939, 37.19512, 20.97647
3.40015, 0.04589844, -0.01171875, 0.8254395, -31.18903, 77.56097, 29.7561, 20.88235
3.40954, 0.02392578, -0.04638672, 0.8354492, -27.16464, 58.35366, 21.98171, 20.83529
3.418955, -0.03100586, -0.06811523, 0.8393555, -16.67683, 41.0061, 17.7439, 20.88235
3.428332, -0.06762695, -0.1296387, 0.8178711, -2.743902, 30.85366, 14.39024, 20.97647
3.437706, -0.04882813, -0.1306152, 0.7402344, 11.82927, 22.80488, 14.23781, 20.88235
3.447041, -0.1467285, -0.1665039, 0.9519043, 22.65244, 11.92073, 13.47561, 20.92941
3.456403, -0.166748, -0.1098633, 0.9394531, 26.64634, -6.95122, 14.26829, 20.97647
3.465781, -0.1494141, -0.046875, 0.8376465, 19.54268, -20.15244, 18.07927, 20.97647
3.490071, -0.08911133, 0.06054688, 0.5532227, -28.35366, -15.7622, 33.5061, 20.88235
3.499778, -0.05541992, 0.0378418, 0.5307617, -49.20732, -1.615854, 36.95122, 20.83529
3.509299, -0.05981445, -0.1047363, 0.6938477, -61.58537, 7.621952, 32.43903, 20.97647
3.518697, -0.04150391, -0.2653809, 0.9443359, -58.68903, 7.012195, 24.14634, 20.83529
3.528077, -0.02246094, -0.2663574, 0.9553223, -40.21342, 14.42073, 22.34756, 20.88235
3.53747, -0.0456543, -0.1677246, 0.9016113, -26.15854, 23.2622, 27.04268, 20.83529
3.546832, -0.1474609, -0.07885742, 0.8212891, -21.28049, 27.19512, 33.56707, 20.88235
3.556193, -0.1850586, -0.02392578, 0.855957, -15.03049, 24.5122, 42.95732, 20.92941
3.565567, -0.2160645, -0.0793457, 0.8330078, -6.52439, 17.13415, 51.21952, 20.88235
3.574948, -0.2001953, -0.1286621, 0.8603516, -0.3963415, 9.115854, 58.87195, 20.97647
3.599392, -0.07641602, -0.05395508, 0.7287598, -3.658537, 21.55488, 67.83536, 20.97647
3.609134, 0.0004882813, -0.06982422, 0.7387695, -15.30488, 20.06098, 62.43903, 21.07059
3.618602, 0.002929688, -0.1071777, 0.8337402, -30.60976, 10.51829, 51.25, 20.88235
3.628056, 0.03491211, -0.1608887, 0.9360352, -41.98171, -8.902439, 36.12805, 20.83529
3.637442, 0.03564453, -0.1574707, 0.9633789, -47.07317, -34.42074, 21.18902, 20.97647
3.646831, 0.0222168, -0.07495117, 0.9123535, -45.57927, -47.5, 13.44512, 20.92941
3.656208, -0.03125, -0.1147461, 0.8183594, -33.84146, -42.95732, 10.18293, 20.88235
3.665583, -0.09277344, -0.1677246, 0.871582, -16.25, -40.94512, 10.18293, 20.88235
3.674992, -0.1081543, -0.1538086, 0.8398438, 2.134146, -36.18903, 13.01829, 20.83529
3.684384, -0.07495117, -0.1149902, 0.7780762, 15.06098, -26.37195, 18.90244, 20.97647
3.708982, -0.01147461, -0.05004883, 0.7380371, 23.56707, 8.75, 37.7439, 20.97647
3.718731, 0.02514648, -0.06225586, 0.8786621, 18.47561, 19.26829, 43.17073, 20.92941
3.728172, 0.03442383, 0.06420898, 0.9492188, 10.0, 25.2439, 45.5183, 20.92941
3.737528, 0.04833984, 0.1425781, 0.9213867, -2.256098, 24.72561, 45.24391, 20.97647
3.746906, 0.07983398, 0.1501465, 0.9084473, -17.71342, 19.81707, 43.35366, 20.92941
3.7563, 0.078125, 0.107666, 0.8566895, -32.34756, 14.5122, 40.5183, 20.88235
3.765712, 0.07202148, 0.03857422, 0.9370117, -40.67073, 1.036585, 39.42074, 20.83529
3.775049, 0.01953125, 0.01269531, 0.8979492, -40.33536, -13.41463, 40.88415, 20.88235
3.784403, -0.02294922, -0.01318359, 0.7749023, -32.04268, -21.12805, 39.60366, 20.92941
3.793838, -0.06591797, -0.1340332, 0.7885742, -18.53659, -27.13415, 37.34756, 20.92941
3.81861, -0.1350098, -0.354248, 0.6508789, 20.09146, -18.47561, 20.42683, 20.83529
3.828334, -0.1176758, -0.3845215, 0.7702637, 27.89634, -3.871951, 13.20122, 20.88235
3.837817, -0.03540039, -0.2155762, 0.7817383, 31.82927, 6.158537, 12.46951, 20.92941
3.847271, 0.08935547, -0.02832031, 0.8171387, 36.79878, 13.9939, 17.31707, 20.97647
3.856651, 0.1115723, -0.01953125, 0.8815918, 36.4939, 20.73171, 16.85976, 20.92941
3.866029, 0.06176758, -0.05908203, 0.8916016, 35.09146, 25.64025, 12.53049, 20.88235
3.875393, 0.001708984, -0.01074219, 0.7980957, 38.20122, 29.78659, 10.12195, 20.92941
3.884747, -0.01953125, 0.001464844, 0.7736816, 44.02439, 30.88415, 9.176829, 20.88235
3.894051, -0.06860352, -0.05883789, 0.7607422, 52.19512, 26.09756, 8.567074, 20.92941
3.903422, -0.1291504, -0.06591797, 0.6760254, 62.83537, 15.0, 8.719512, 20.88235
3.928342, -0.1147461, 0.07299805, 0.6831055, 63.23171, -3.292683, 14.26829, 20.88235
3.938012, -0.04711914, 0.06030273, 0.6848145, 66.7683, 2.591464, 18.81098, 21.02353
3.947418, -0.02050781, 0.07617188, 0.7702637, 66.43293, 9.329268, 21.46342, 20.97647
3.956819, -0.08789063, 0.08496094, 0.9223633, 55.60976, 12.31707, 17.19512, 20.88235
3.966199, -0.2036133, 0.1513672, 1.235107, 28.47561, 3.231707, 8.567074, 20.97647
3.975577, -0.2370605, 0.2243652, 1.135742, -10.82317, -5.823171, 1.798781, 20.97647
3.984944, -0.1115723, 0.2104492, 0.8059082, -38.65854, -5.396342, -2.012195, 20.92941
3.99439, -0.1083984, 0.1496582, 0.7348633, -52.74391, -7.77439, -2.256098, 20.92941
4.003825, -0.1679688, 0.04150391, 0.699707, -48.75, -16.34146, -1.310976, 20.97647
4.013235, -0.1682129, -0.02978516, 0.6008301, -35.91464, -22.46951, 0.0, 20.88235
4.038404, -0.1020508, -0.01489258, 0.7268066, -11.03659, -27.16464, 1.280488, 20.88235
4.048234, -0.06103516, -0.002441406, 0.8161621, -12.77439, -27.37805, 1.219512, 20.97647
4.057701, -0.03930664, -0.00390625, 0.8544922, -18.59756, -26.28049, -0.0304878, 20.88235
4.067162, -0.02709961, -0.02954102, 0.8071289, -18.65854, -24.02439, 0.6402439, 20.83529
4.076536, -0.0004882813, -0.03051758, 0.7626953, -11.61585, -17.2561, 2.865854, 20.88235
4.085929, 0.009765625, -0.06201172, 0.8337402, -2.378049, -9.085366, 3.689024, 20.92941
4.095308, 0.0534668, -0.07666016, 0.831543, 3.597561, 0.2134146, 4.695122, 20.88235
4.104689, 0.07373047, -0.04492188, 0.8566895, 3.323171, 7.652439, 5.579268, 20.92941
4.114042, 0.01220703, -0.01611328, 0.8710938, -1.493902, 6.737805, 7.256098, 20.88235
4.12341, -0.01977539, 0.007080078, 0.8222656, -5.823171, -0.5182927, 7.957317, 20.83529
4.148651, -0.08447266, 0.009277344, 0.744873, -16.46342, -21.64634, 4.481708, 20.97647
4.158431, -0.09692383, -0.01123047, 0.7087402, -14.7561, -25.48781, 2.256098, 21.02353
4.167909, -0.08227539, -0.02856445, 0.7053223, -10.70122, -25.82317, 0.2743902, 20.88235
4.177337, -0.07055664, -0.03417969, 0.7202148, -10.64024, -25.48781, 0.3963415, 20.97647
4.186761, -0.04589844, -0.0009765625, 0.7402344, -14.93903, -23.65854, 4.634146, 20.92941
4.196156, 0.03686523, 0.1564941, 0.7175293, -24.63415, -19.08537, 22.10366, 21.07059
4.205521, 0.08935547, 0.4697266, 0.9138184, -37.59146, -9.664635, 47.43903, 21.02353
4.214907, 0.06665039, 0.4760742, 0.770752, -44.42073, -4.939024, 49.29878, 20.97647
4.224254, -0.09301758, 0.2490234, 0.7753906, -47.0122, -3.079268, 34.96951, 20.92941
4.233591, -0.08911133, 0.007568359, 0.8066406, -43.47561, -2.439024, 25.06098, 20.88235
4.258989, -0.001464844, -0.3464355, 0.9272461, -18.07927, -0.4878049, -1.585366, 20.97647
4.26876, 0.06030273, -0.2617188, 0.8725586, -16.37195, -6.890244, -8.262196, 20.88235
4.278269, 0.0559082, -0.1733398, 0.7290039, -6.707317, -5.945122, -4.603659, 20.88235
4.287737, -0.01318359, -0.0402832, 0.7888184, 8.628049, -9.817074, -1.615854, 20.97647
4.297145, -0.02612305, -0.07592773, 0.7878418, 17.28659, -11.37195, -1.676829, 21.02353
4.306543, -0.003417969, -0.04614258, 0.7912598, 18.35366, -12.7439, -3.597561, 20.88235
4.315916, -0.07617188, -0.01928711, 0.9370117, 7.713415, -18.29268, -8.079268, 20.92941
4.325308, -0.09130859, -0.03271484, 0.782959, 1.890244, -18.17073, -10.60976, 20.97647
4.334643, -0.04711914, -0.06274414, 0.7375488, 2.713415, -13.78049, -11.31098, 20.92941
4.34399, -0.02001953, -0.07348633, 0.7189941, 8.689025, -10.21342, -11.09756, 20.97647
4.36967, 0.006347656, -0.02441406, 0.7485352, 17.95732, -4.664634, -1.646341, 20.97647
4.379422, -0.02905273, 0.0378418, 0.8081055, 3.170732, -11.09756, 1.859756, 20.92941
4.388954, -0.03979492, 0.05297852, 0.7468262, -13.01829, -18.32317, 3.780488, 20.97647
4.398342, -0.02807617, 0.02539063, 0.763916, -25.18293, -25.54878, 1.920732, 20.97647
4.407778, -0.02807617, -0.003662109, 0.7680664, -27.46951, -32.56098, -1.493902, 20.92941
4.417216, -0.02270508, -0.03491211, 0.7800293, -23.17073, -37.95732, -5.121951, 20.88235
4.426593, -0.02319336, -0.09521484, 0.7568359, -15.48781, -38.38415, -10.36585, 20.88235
4.436017, 0.01269531, -0.114502, 0.784668, -6.128049, -34.78659, -12.86585, 20.97647
4.445343, 0.04956055, -0.112793, 0.7861328, 7.621952, -30.7622, -11.21951, 21.02353
4.454715, 0.08520508, -0.1291504, 0.7241211, 22.98781, -19.2378, -6.554878, 20.97647
4.480513, 0.01367188, -0.004150391, 0.9907227, 10.21342, -8.658537, 2.621951, 20.92941
4.490237, 0.04833984, 0.009033203, 0.838623, 4.969512, -6.341464, 3.780488, 20.92941
4.499642, 0.05664063, 0.02807617, 0.8303223, -1.890244, -5.914634, 3.932927, 20.97647
4.50903, -0.02148438, 0.02099609, 0.869873, -7.5, -16.09756, 3.780488, 20.92941
4.51841, -0.06005859, 0.02001953, 0.8295898, -13.81098, -26.70732, 1.798781, 20.83529
4.527844, -0.06689453, -0.01171875, 0.8359375, -17.62195, -36.7683, -1.798781, 20.97647
4.537228, -0.06933594, -0.05151367, 0.8833008, -17.68293, -45.88415, -5.914634, 20.92941
4.546578, -0.03198242, -0.09399414, 0.9187012, -11.4939, -46.79878, -8.932927, 20.97647
4.555926, 0.03881836, -0.109375, 0.8806152, 1.067073, -35.60976, -7.012195, 20.92941
4.565282, 0.1162109, -0.1052246, 0.972168, 12.62195, -21.4939, -1.859756, 20.97647
4.591216, 0.1237793, 0.004394531, 1.099609, 6.920732, 2.865854, 12.65244, 20.88235
4.600937, 0.046875, -0.04858398, 1.120361, 7.5, 6.006098, 7.408537, 20.97647
4.610386, -0.01269531, -0.046875, 1.145996, 11.28049, 2.743902, 1.920732, 20.92941
4.619769, -0.06835938, -0.01391602, 1.20874, 17.22561, -5.609756, -2.042683, 20.88235
4.629175, -0.1101074, 0.01123047, 1.236084, 17.65244, -17.71342, -0.2134146, 20.88235
4.638561, -0.1335449, -0.01538086, 1.345947, 14.42073, -30.7622, 0.4878049, 20.92941
4.647965, -0.1364746, -0.01782227, 1.412598, 12.16463, -37.19512, 0.7012195, 20.97647
4.657329, -0.07421875, -0.01660156, 1.477783, 17.10366, -33.53659, 3.536585, 20.92941
4.666657, 0.01000977, -0.004882813, 1.562988, 22.59146, -19.02439, 8.567074, 20.92941
4.675958, 0.01879883, 0.03320313, 1.590088, 21.15854, -0.6402439, 12.5, 20.97647
4.702014, -0.01342773, 0.02490234, 1.715332, -0.6402439, 36.89024, 10.54878, 20.97647
4.71179, -0.005615234, 0.05102539, 1.787109, -6.067073, 41.95122, 8.810976, 20.97647
4.7213, 0.01416016, 0.1271973, 1.858154, -7.408537, 43.47561, 8.231708, 20.92941
4.730671, -0.1594238, 0.1018066, 2.015137, -0.3353659, 43.04878, 3.871951, 21.07059
4.740017, -0.2036133, -0.015625, 2.099609, 12.10366, 42.65244, -2.5, 21.02353
4.749377, -0.2839355, -0.06518555, 2.286377, 27.89634, 40.4878, -4.756098, 20.97647
4.758736, -0.3845215, -0.0949707, 2.37085, 41.85976, 38.75, -4.908537, 20.92941
4.768072, -0.388916, -0.0703125, 2.474365, 56.64634, 35.12195, 9.359756, 20.92941
4.777384, -0.3103027, 0.08544922, 2.527588, 80.15244, 21.73781, 36.61586, 20.88235
4.786754, -0.3312988, 0.1259766, 2.556152, 109.2683, 5.243903, 60.60976, 20.97647
4.81294, 0.1044922, 0.2763672, 2.447754, 96.4939, 50.97561, 93.47561, 20.88235
4.822787, 0.359375, 0.434082, 2.064453, 28.14025, 98.81098, 101.8293, 20.92941
4.832258, 0.6726074, 0.7355957, 1.826904, -62.37805, 156.4329, 110.3659, 20.97647
4.841667, 0.5964355, 0.7629395, 2.275635, -150.1829, 185.1829, 107.7744, 20.92941
4.850991, 0.3461914, 0.1379395, 1.825928, -161.4329, 199.4512, 69.35976, 20.97647
4.860392, 0.5068359, -0.1091309, 1.530762, -85.18293, 218.0488, 53.35366, 20.88235
4.869735, 0.467041, -0.1704102, 1.357422, 11.28049, 188.628, 57.43903, 20.88235
4.879074, 0.2539063, -0.2175293, 0.7172852, 102.6829, 134.6341, 56.58536, 20.97647
4.888406, 0.01367188, -0.1452637, -0.0234375, 166.4634, 85.97561, 52.83536, 20.92941
4.897764, -0.01611328, -0.03930664, -0.1616211, 198.3537, 53.14024, 50.21342, 21.07059
4.924237, 0.02539063, 0.02954102, -0.2844238, 211.7073, 36.7378, 47.89634, 20.97647
4.934149, 0.03417969, 0.03662109, -0.2695313, 209.6342, 34.69512, 47.07317, 20.88235
4.943645, 0.04223633, 0.03735352, -0.2590332, 206.6159, 33.56707, 46.49391, 20.88235
4.953043, 0.03491211, 0.03881836, -0.2558594, 203.0488, 33.59756, 45.45732, 20.92941
4.962456, 0.04174805, 0.03979492, -0.222168, 198.4756, 33.81098, 44.81708, 20.97647
4.971847, 0.03344727, 0.03662109, -0.2058105, 192.9268, 33.81098, 44.08536, 20.92941
4.981195, 0.03564453, 0.03662109, -0.2070313, 187.8963, 33.78049, 43.41464, 20.97647
4.990551, 0.0402832, 0.02587891, -0.2089844, 183.75, 34.2683, 42.80488, 20.92941
4.999907, 0.04467773, 0.03076172, -0.2058105, 180.3354, 35.42683, 42.65244, 20.92941
5.009194, 0.04174805, 0.02392578, -0.2109375, 178.2012, 37.13415, 41.98171, 20.97647
5.035749, 0.02514648, 0.02368164, -0.1787109, 167.7134, 39.35976, 40.33536, 21.07059
5.045543, 0.03710938, 0.03076172, -0.1813965, 163.7805, 40.91464, 39.90854, 20.88235
5.054994, 0.03173828, 0.01489258, -0.1806641, 161.25, 42.34756, 39.29878, 20.92941
5.064376, 0.04296875, 0.02270508, -0.184082, 158.3537, 43.78049, 38.87195, 20.88235
5.073738, 0.0300293, 0.01757813, -0.1542969, 155.3659, 45.0, 38.14024, 20.92941
5.08307, 0.02783203, 0.02001953, -0.1606445, 151.7988, 46.25, 37.83537, 20.97647
5.092392, 0.03491211, 0.01416016, -0.1481934, 148.4756, 46.85976, 37.13415, 21.07059
5.101711, 0.0300293, 0.02246094, -0.1474609, 144.5427, 47.13415, 36.4939, 21.02353
5.111061, 0.02661133, 0.02099609, -0.1245117, 139.939, 46.46342, 36.09756, 20.97647
5.120407, 0.02636719, 0.02099609, -0.1225586, 134.7866, 45.36586, 35.21342, 20.92941
5.147175, 0.0324707, 0.01538086, -0.119873, 115.9756, 42.19512, 33.53659, 20.92941
5.156999, 0.03100586, 0.01196289, -0.1218262, 108.9939, 41.67683, 32.92683, 20.92941
5.166518, 0.03149414, 0.01342773, -0.1193848, 102.4695, 42.16464, 32.28659, 20.88235
5.175881, 0.03198242, 0.01025391, -0.1157227, 94.7866, 42.95732, 31.61586, 20.92941
5.185279, 0.02905273, 0.01293945, -0.09936523, 86.28049, 43.17073, 31.0061, 20.88235
5.194603, 0.02978516, 0.01196289, -0.08837891, 77.13415, 43.10976, 30.36586, 20.92941
5.203944, 0.02490234, 0.01049805, -0.08789063, 67.2561, 42.43903, 29.72561, 20.97647
5.213294, 0.03369141, 0.006347656, -0.09570313, 59.08537, 42.13415, 29.23781, 20.92941
5.222642, 0.02978516, 0.002929688, -0.08740234, 51.46342, 40.70122, 28.65854, 20.97647
5.232001, 0.02880859, 0.009765625, -0.08618164, 43.93293, 39.2378, 28.17073, 20.97647
5.258949, 0.02563477, 0.005615234, -0.05639648, 16.46342, 34.11586, 26.4939, 20.88235
5.268776, 0.03564453, 0.004150391, -0.05273438, 5.823171, 32.07317, 25.91464, 20.88235
5.278315, 0.03491211, 0.006591797, -0.05664063, -5.030488, 30.67073, 25.18293, 20.97647
5.287707, 0.03344727, 0.001953125, -0.0625, -16.40244, 29.66464, 24.39024, 20.92941
5.297075, 0.03491211, 0.0078125, -0.0546875, -28.75, 29.08537, 23.75, 20.88235
5.306445, 0.03076172, 0.005126953, -0.05541992, -40.73171, 29.02439, 22.98781, 20.92941
5.315784, 0.03637695, 0.007080078, -0.04956055, -53.32317, 29.5122, 22.13415, 20.88235
5.325183, 0.04321289, 0.007568359, -0.06005859, -66.09756, 30.82317, 21.34146, 21.02353
5.334523, 0.03735352, 0.01025391, -0.04541016, -79.08536, 32.0122, 20.30488, 20.92941
5.343855, 0.02514648, 0.01269531, -0.03955078, -92.5, 33.20122, 19.48171, 20.97647
5.371005, 0.0324707, 0.02392578, -0.01123047, -133.5671, 35.06098, 17.19512, 20.92941
5.380887, 0.02514648, 0.02636719, -0.01928711, -149.4817, 35.88415, 16.46342, 20.97647
5.390404, 0.03344727, 0.0378418, -0.006347656, -165.5793, 36.85976, 15.54878, 21.02353
5.399789, 0.03320313, 0.03930664, 0.01611328, -182.4085, 38.04878, 14.78659, 20.97647
5.409187, 0.03417969, 0.04418945, 0.01879883, -200.1524, 38.81098, 14.02439, 20.88235
5.418602, 0.0324707, 0.04882813, 0.04418945, -210.7317, 39.39024, 13.23171, 20.83529
5.427938, 0.03295898, 0.05932617, 0.05566406, -237.6524, 39.69512, 12.5, 20.92941
5.43729, 0.03271484, 0.06933594, 0.07275391, -257.8049, 39.78659, 11.52439, 20.97647
5.446646, 0.03491211, 0.0769043, 0.09375, -280.4573, 39.60366, 10.54878, 20.92941
5.456024, 0.03173828, 0.09326172, 0.1323242, -306.0671, 38.84146, 9.237805, 20.88235
5.48331, 0.01245117, 0.1564941, 0.2775879, -397.9268, 22.98781, 2.286585, 20.88235
5.493339, -1.446777, -3.312256, 0.4406738, -614.6037, 185.7012, -641.4329, 20.78824
5.502835, 0.02636719, 0.9919434, -0.5634766, -534.9695, 191.8902, -628.689, 20.88235
5.512516, 0.08081055, 1.302979, 3.256348, 47.22561, -357.9268, -367.561, 20.92941
5.521945, -5.29126, 4.678467, 4.575439, -131.4939, -769.2073, 34.29878, 20.97647
5.531533, -2.77832, 1.349854, 0.965332, -195.2744, -599.6037, 33.78049, 21.02353
5.540937, -2.429932, 0.4499512, 1.035889, -180.6098, -492.4085, -15.12195, 20.97647
5.550267, -0.215332, 0.04223633, 0.5771484, -88.41464, -399.2683, -40.79268, 21.02353
5.559626, 0.1228027, -0.3955078, 0.3181152, -1.310976, -368.1098, -52.2561, 20.97647
5.569012, 0.1228027, -0.4697266, 0.5222168, 13.17073, -283.2317, -51.49391, 20.83529
5.596704, 1.362061, 1.236084, 2.516602, -200.5183, -7.408537, 160.4878, 20.92941
5.606635, 0.7683105, 0.4140625, 2.329346, -229.0549, -15.36585, 194.1768, 20.97647
5.616025, 0.3146973, -0.2358398, 2.231445, -188.2622, -77.13415, 186.7073, 20.92941
5.625563, 0.1323242, -0.4489746, 1.948486, -131.7073, -123.5061, 159.0549, 20.88235
5.634968, 0.2849121, -0.8295898, 1.15918, -155.7317, -59.87805, 80.85366, 20.88235
5.644355, -0.09936523, -1.340332, 2.251953, -62.62195, -131.5549, 15.21342, 20.92941
5.653744, -1.312012, -4.316406, -7.9375, 599.3293, 998.9939, 10.09146, 20.88235
5.663189, -7.9375, 1.316162, -5.57251, -126.5244, 540.0, 167.4085, 20.97647
5.672579, -0.6916504, -0.9499512, 2.505127, -135.9146, 128.7195, 9.420732, 20.88235
5.681965, 0.5056152, -0.807373, 0.9592285, -66.18903, 73.04878, -53.14024, 20.97647
5.709783, -0.6242676, -0.2509766, 1.693848, 15.51829, -59.14634, -19.05488, 20.88235
5.719667, -0.2827148, 0.1806641, 0.6186523, -17.19512, -7.347561, -25.60976, 20.97647
5.729109, -0.1564941, -0.04882813, 0.06518555, 24.48171, 34.90854, -27.5, 20.97647
5.738568, 0.08447266, -0.05517578, 0.4587402, 50.91464, 59.2378, -8.445122, 20.92941
5.747974, -0.001220703, -0.1599121, 0.6166992, 58.96342, 72.95732, 1.189024, 20.97647
5.757359, -0.02124023, -0.09423828, 0.5883789, 69.08536, 75.45732, 5.853659, 20.97647
5.766738, 0.04101563, 0.08300781, 0.5603027, 74.93903, 73.53659, 10.67073, 20.97647
5.776031, 0.07055664, 0.1186523, 0.5578613, 61.55488, 70.85366, 10.42683, 20.92941
5.785382, 0.2529297, 0.1474609, 0.6208496, 35.97561, 77.31708, 5.27439, 20.97647
5.794781, 0.2668457, 0.1000977, 0.5036621, 9.786586, 76.55488, -8.536586, 20.92941
5.822757, -0.07861328, 0.2211914, 1.048096, -38.56707, -25.12195, -25.21342, 20.88235
5.832745, -0.3439941, 0.2490234, 1.584717, -69.35976, -68.44512, -28.65854, 20.97647
5.842198, -0.3764648, -0.001220703, 1.336426, -78.35366, -64.17684, -40.54878, 20.97647
5.851671, -0.2956543, -0.2495117, 1.253418, -76.09756, -33.14024, -46.09756, 21.02353
5.861125, 0.05639648, -0.3105469, 0.9067383, -44.90854, 16.7378, -35.5183, 20.92941
5.870569, 0.3959961, -0.3310547, 0.7890625, -5.70122, 70.97561, -16.7378, 20.97647
5.879944, 0.3916016, -0.4223633, 0.809082, 32.5, 115.0, -4.817073, 21.02353
5.889272, 0.2072754, -0.4619141, 0.8337402, 64.42073, 143.6585, -8.810976, 20.97647
5.898667, 0.01586914, -0.3549805, 1.018311, 83.20122, 145.8232, -17.95732, 20.83529
5.908035, -0.1149902, -0.1577148, 1.226807, 79.57317, 114.4817, -29.17683, 20.97647
5.936199, -0.2148438, 0.09472656, 0.9133301, 29.42073, -4.390244, -31.70732, 20.88235
5.946105, -0.2375488, -0.0004882813, 0.8708496, 15.03049, -14.63415, -32.31707, 20.88235
5.955632, -0.168457, 0.001953125, 0.736084, 9.786586, -10.39634, -31.06707, 20.88235
5.965053, -0.1196289, 0.01586914, 0.7438965, 5.823171, -3.018293, -29.63415, 20.92941
5.974449, -0.1611328, 0.0480957, 0.71875, 2.530488, 5.914634, -29.60366, 20.88235
5.98384, -0.142334, 0.01147461, 0.708252, 4.634146, 16.31098, -28.2622, 20.92941
5.993218, -0.09204102, -0.03808594, 0.666748, 8.689025, 22.10366, -26.4939, 20.88235
6.002592, -0.08129883, -0.07470703, 0.6704102, 10.91463, 21.85976, -22.77439, 20.88235
6.012014, -0.1120605, -0.114502, 0.6662598, 15.94512, 19.90854, -17.43902, 20.92941
6.021375, -0.1574707, -0.1320801, 0.6933594, 20.82317, 14.81707, -13.59756, 20.92941
6.049663, -0.1530762, -0.03466797, 0.7194824, 18.20122, -2.5, -3.109756, 20.88235
6.059549, -0.1472168, -0.02978516, 0.7080078, 16.85976, -2.195122, 0.304878, 20.88235
6.068997, -0.09545898, -0.02685547, 0.6672363, 14.93903, 4.573171, 0.5487805, 20.88235
6.078461, -0.04174805, -0.03320313, 0.6335449, 12.95732, 16.12805, -1.036585, 20.92941
6.087919, -0.02709961, -0.02026367, 0.630127, 9.634147, 25.30488, -2.865854, 20.92941
6.097334, -0.0703125, -0.005615234, 0.6235352, 7.835366, 29.7561, -2.896342, 20.88235
6.106709, -0.1105957, -0.002929688, 0.6169434, 8.567074, 28.01829, -2.713415, 20.92941
6.116038, -0.1132813, -0.02685547, 0.6303711, 7.804878, 22.31707, -2.560976, 20.97647
6.125446, -0.1416016, -0.03515625, 0.6088867, 8.018292, 17.40854, -1.646341, 20.92941
6.134821, -0.1430664, -0.07348633, 0.5881348, 9.695122, 12.95732, -1.402439, 20.97647
6.163387, -0.2062988, -0.06689453, 0.6616211, 8.841464, -22.95732, 3.810976, 20.92941
6.173321, -0.2114258, -0.05541992, 0.7023926, 3.567073, -35.12195, 5.030488, 20.88235
6.182869, -0.1835938, -0.046875, 0.6948242, -2.439024, -40.5183, 5.335366, 20.97647
6.19235, -0.1477051, -0.05004883, 0.6872559, -5.853659, -40.5183, 5.182927, 20.92941
6.201805, -0.1413574, -0.145752, 0.7087402, -7.865854, -36.40244, 5.121951, 21.02353
6.211198, -0.1254883, -0.03027344, 0.7121582, -11.89024, -24.66464, 1.128049, 20.88235
6.220585, -0.08227539, 0.01416016, 0.7346191, -12.5, -14.45122, -3.018293, 20.97647
6.229954, -0.0690918, 0.002929688, 0.7868652, -12.98781, -7.347561, -4.72561, 20.97647
6.239309, -0.08300781, -0.01586914, 0.7883301, -10.79268, 0.4268293, -6.432927, 20.92941
6.248697, -0.05444336, -0.02026367, 0.7822266, -5.152439, 8.506098, -6.737805, 20.97647
6.277402, -0.1660156, -0.04394531, 0.8635254, 11.06707, 8.506098, -1.859756, 20.88235
6.287354, -0.1772461, -0.05883789, 0.8664551, 9.02439, 3.567073, -1.676829, 20.92941
6.296874, -0.170166, -0.04492188, 0.8596191, 4.786585, -0.6707317, -1.95122, 20.88235
6.306369, -0.1762695, -0.03515625, 0.8544922, -0.3963415, -4.207317, -1.493902, 20.97647
6.315826, -0.1850586, -0.009765625, 0.8884277, -6.128049, -8.384147, -0.152439, 20.88235
6.325283, -0.2026367, 0.01171875, 0.9101563, -10.30488, -11.4939, 0.6402439, 20.92941
6.334673, -0.1694336, 0.01049805, 0.8864746, -11.0061, -12.40854, 1.493902, 20.88235
6.344053, -0.1489258, 0.01733398, 0.8730469, -11.25, -10.27439, 1.097561, 20.97647
6.353453, -0.1325684, -0.01293945, 0.8232422, -11.25, -1.25, -0.7621951, 20.83529
6.362859, -0.09790039, -0.03637695, 0.8007813, -5.823171, 11.34146, -1.219512, 20.88235
6.391724, -0.1337891, 0.006103516, 0.7685547, 6.676829, 26.95122, -1.432927, 20.92941
6.401618, -0.1408691, 0.01098633, 0.7290039, 4.817073, 23.81098, -3.414634, 20.92941
6.411083, -0.151123, 0.02075195, 0.7253418, 1.280488, 14.45122, -4.237805, 21.02353
6.420535, -0.1918945, 0.01513672, 0.7419434, -2.134146, -0.1219512, -3.993902, 20.97647
6.429936, -0.199707, 0.01245117, 0.8085938, -7.286585, -14.93903, -2.012195, 21.02353
6.439336, -0.2001953, 0.005859375, 0.8129883, -12.80488, -23.01829, -0.5487805, 20.97647
6.448705, -0.1816406, -0.01367188, 0.8266602, -14.54268, -23.56707, 0.1829268, 20.97647
6.45809, -0.1635742, -0.02612305, 0.822998, -14.48171, -17.46951, 0.4268293, 21.02353
6.467482, -0.1359863, -0.03564453, 0.798584, -11.21951, -5.27439, 1.128049, 20.97647
6.476859, -0.1152344, -0.05639648, 0.7954102, -6.829268, 9.115854, 1.646341, 20.92941
6.505895, -0.1469727, -0.02441406, 0.7736816, 0.1829268, 29.02439, -0.5487805, 20.92941
6.515754, -0.1835938, -0.02270508, 0.8015137, -1.981707, 18.96342, -1.036585, 20.92941
6.525429, -0.2145996, -0.01074219, 0.7983398, -5.243903, 3.414634, -1.067073, 20.92941
6.534895, -0.2272949, -0.01000977, 0.8093262, -7.621952, -13.17073, -0.8231708, 20.97647
6.544316, -0.2231445, -0.01977539, 0.8173828, -9.542684, -26.43293, -0.4573171, 20.97647
6.553768, -0.190918, -0.0168457, 0.8037109, -9.847561, -34.63415, 0.5792683, 21.02353
6.563156, -0.1604004, -0.007080078, 0.8044434, -8.993902, -37.80488, 1.707317, 20.97647
6.572574, -0.1271973, 0.0168457, 0.7971191, -8.567074, -36.34146, 3.231707, 20.92941
6.581916, -0.09765625, 0.02709961, 0.8005371, -10.97561, -32.95732, 2.195122, 20.97647
6.59125, -0.09741211, 0.04663086, 0.8098145, -16.18902, -28.71951, 0.7012195, 20.83529
6.620452, -0.1838379, -0.06713867, 0.8503418, -25.18293, -11.21951, -7.134147, 21.02353
6.630376, -0.1928711, -0.1115723, 0.8349609, -20.45732, -2.987805, -10.64024, 20.97647
6.640056, -0.182373, -0.1569824, 0.822998, -11.92073, 5.670732, -12.80488, 20.88235
6.649485, -0.1538086, -0.1884766, 0.7834473, -0.6097561, 15.57927, -11.4939, 20.92941
6.658867, -0.09033203, -0.177002, 0.796875, 8.414635, 25.30488, -7.317073, 20.97647
6.66824, -0.02490234, -0.1491699, 0.7436523, 14.54268, 34.42074, -2.408537, 21.02353
6.677595, -0.02050781, -0.1049805, 0.7414551, 15.7622, 36.31098, 0.3658537, 20.97647
6.687011, -0.05004883, -0.009765625, 0.7519531, 11.06707, 29.54268, 1.189024, 20.97647
6.696383, -0.104248, 0.078125, 0.7783203, 3.414634, 15.57927, 2.073171, 21.02353
6.705741, -0.1523438, 0.1218262, 0.795166, -4.72561, -1.432927, 3.47561, 20.97647
6.73512, -0.2104492, 0.04492188, 0.7114258, -11.43293, -38.71951, -0.152439, 20.92941
6.74506, -0.2539063, -0.005126953, 0.7036133, -10.12195, -42.62195, -4.664634, 20.83529
6.754707, -0.2543945, -0.03515625, 0.7770996, -2.896342, -48.47561, -7.530488, 20.92941
6.764166, -0.2963867, -0.07250977, 0.8168945, 10.82317, -57.9878, -9.817074, 20.88235
6.773619, -0.3366699, -0.1755371, 0.8435059, 30.21342, -66.31097, -15.94512, 21.02353
6.782981, -0.3254395, -0.2321777, 0.8845215, 37.68293, -68.04878, -22.59146, 21.02353
6.792409, -0.1132813, -0.1845703, 0.7927246, 42.77439, -56.55488, -20.7622, 20.88235
6.801797, 0.0559082, -0.1352539, 0.7814941, 41.7378, -39.17683, -16.0061, 21.02353
6.811167, 0.1682129, -0.08325195, 0.78125, 33.78049, -25.45732, -8.780488, 20.88235
6.820545, 0.1862793, 0.001708984, 0.987793, 19.14634, -23.04878, 0.8536586, 20.88235
6.850064, -0.015625, -0.001953125, 0.8935547, -24.14634, -32.86586, 13.17073, 21.02353
6.860029, -0.1035156, -0.02807617, 0.8500977, -20.51829, -36.25, 12.68293, 21.02353
6.869643, -0.1257324, -0.02880859, 0.7512207, -12.43903, -36.37195, 10.94512, 20.92941
6.879119, -0.1533203, -0.0300293, 0.8623047, -9.207317, -39.20732, 10.12195, 20.92941
6.88859, -0.1103516, -0.03100586, 0.697998, -3.384146, -34.5122, 8.536586, 20.97647
6.898013, -0.07983398, -0.003662109, 0.9047852, -8.628049, -33.9939, 7.5, 20.88235
6.907445, -0.02197266, -0.02124023, 0.7148438, -13.75, -26.25, 5.853659, 21.02353
6.916842, 0.02490234, 0.0009765625, 0.8208008, -19.63415, -29.57317, 9.207317, 20.97647
6.926198, -0.01635742, -0.08764648, 0.6442871, -11.43293, -37.28659, 13.84146, 20.92941
6.935554, 0.04663086, -0.1623535, 0.6394043, 0.2743902, -44.39024, 16.95122, 20.88235
6.965257, -0.1088867, -0.1164551, 0.901123, 3.780488, -117.6829, 24.14634, 20.97647
6.975217, -0.1071777, -0.005126953, 0.918457, -1.006098, -138.9329, 20.7622, 20.88235
6.98488, -0.5429688, -1.048828, -3.887695, 147.0732, 101.9207, -7.317073, 21.02353
6.994278, -0.2062988, 0.3972168, 1.015137, 1.097561, -9.176829, 15.42683, 20.97647
7.003642, -0.4572754, -0.01538086, 1.303955, -2.591464, -11.55488, -8.689025, 20.97647
7.013074, 0.1560059, 0.1623535, 1.103027, -1.798781, -2.77439, -3.018293, 20.92941
7.022481, 0.1518555, 0.05029297, 0.5761719, 1.463415, 6.859756, -4.969512, 20.97647
7.031842, 0.1801758, -0.01660156, 0.7944336, 5.335366, 5.945122, -3.170732, 21.02353
7.041171, 0.125, 0.05712891, 0.7749023, 9.207317, 4.542683, -2.317073, 20.92941
7.050498, 0.1489258, 0.02636719, 0.8601074, 11.98171, 2.134146, -5.54878, 20.97647
7.080354, 0.1386719, 0.05908203, 0.8449707, 18.78049, -1.006098, -9.695122, 20.92941
7.090252, 0.07910156, -0.01928711, 0.9274902, 15.94512, -1.829268, -14.14634, 20.88235
7.099817, 0.07055664, 0.03442383, 0.9211426, 11.34146, 2.896342, -15.36585, 20.88235
7.109308, -0.04125977, -0.0390625, 0.7631836, 10.48781, 8.04878, -16.55488, 20.92941
7.118683, -0.03564453, -0.02514648, 0.8220215, 2.408537, 8.810976, -18.5061, 20.92941
7.128072, 0.02099609, 0.009521484, 0.8303223, -3.902439, 10.54878, -15.51829, 20.97647
7.137444, 0.02880859, 0.0378418, 0.746582, -10.94512, 14.11585, -9.634147, 21.07059
7.146762, 0.08984375, 0.0456543, 0.7993164, -8.719512, 15.91463, -3.75, 20.92941
7.156082, 0.1000977, 0.0378418, 0.7819824, -4.542683, 17.46951, 0.06097561, 20.97647
7.165482, 0.04467773, 0.009033203, 0.626709, -1.097561, 25.09146, 0.4573171, 20.92941
7.195537, 0.06079102, 0.07617188, 0.4921875, 15.60976, 66.49391, 16.79878, 20.97647
7.205573, -0.114502, 0.1071777, 0.440918, 6.646342, 94.26829, 20.42683, 20.97647
7.215139, -0.09423828, 0.04296875, -0.03686523, -18.68902, 124.3293, 17.56098, 20.88235
7.224609, 0.2180176, 0.01342773, 0.5336914, -40.24391, 170.0, 18.38415, 20.92941
7.234019, -2.117676, -1.354492, 7.594238, 47.19512, -8.292683, 0.8536586, 20.97647
7.243445, 0.1843262, -0.1003418, 1.095703, 5.304878, -2.835366, 0.09146341, 20.92941
7.252794, -0.07373047, 0.06835938, 0.7414551, -8.140244, -4.207317, -1.097561, 20.92941
7.262206, -0.06787109, -0.0234375, 0.8815918, -3.384146, -0.7926829, -0.4878049, 20.88235
7.271602, -0.04541016, -0.008789063, 0.7910156, 1.676829, -0.7317073, -0.4268293, 20.92941
7.280978, -0.06103516, 0.01342773, 0.8190918, -2.378049, -1.463415, -0.6707317, 20.97647
7.311237, -0.05004883, -0.001708984, 0.8166504, -0.8841463, -1.067073, -0.6402439, 20.88235
7.321351, -0.04418945, 0.0078125, 0.8220215, -1.128049, -1.310976, -0.6402439, 20.92941
7.330906, -0.05444336, 0.00390625, 0.8100586, -1.25, -1.128049, -0.6097561, 20.97647
7.340356, -0.05249023, 0.0004882813, 0.8198242, -1.158537, -1.067073, -0.5182927, 21.02353
7.349691, -0.04882813, 0.001953125, 0.8220215, -1.158537, -1.006098, -0.4878049, 20.97647
7.359053, -0.05224609, 0.006347656, 0.8132324, -1.219512, -1.189024, -0.4878049, 20.92941
7.3684, -0.04980469, 0.01538086, 0.8156738, -1.006098, -1.189024, -0.5792683, 20.97647
7.37783, -0.05664063, 0.005371094, 0.810791, -1.189024, -1.158537, -0.6097561, 20.97647
7.387236, -0.04638672, 0.008056641, 0.8227539, -1.128049, -1.067073, -0.4573171, 20.92941
7.396572, -0.04907227, 0.006591797, 0.8166504, -1.371951, -1.128049, -0.6707317, 20.88235
7.427003, -0.05932617, -0.001708984, 0.8151855, -1.219512, -1.006098, -0.5792683, 20.92941
7.437084, -0.05395508, 0.0004882813, 0.8139648, -1.036585, -1.006098, -0.5792683, 20.92941
7.446633, -0.05859375, 0.002685547, 0.8146973, -0.945122, -1.25, -0.4573171, 20.92941
7.456068, -0.05297852, 0.0004882813, 0.8186035, -1.219512, -0.8841463, -0.5487805, 20.97647
7.465494, -0.05541992, 0.009277344, 0.8198242, -1.158537, -1.128049, -0.6402439, 20.97647
7.474888, -0.04907227, 0.003662109, 0.8198242, -1.280488, -1.128049, -0.5487805, 20.92941
7.484286, -0.05249023, 0.009521484, 0.8144531, -1.158537, -1.341463, -0.6707317, 20.97647
7.493642, -0.05273438, 0.008789063, 0.8115234, -1.067073, -1.006098, -0.5487805, 20.92941
7.503004, -0.05004883, 0.0078125, 0.8129883, -1.128049, -1.128049, -0.6402439, 20.97647
7.512409, -0.05126953, 0.003662109, 0.817627, -1.097561, -1.067073, -0.4878049, 21.02353
7.542992, -0.05200195, 0.007324219, 0.8203125, -1.097561, -1.25, -0.6402439, 20.88235
7.553094, -0.05908203, -0.001953125, 0.8222656, -1.036585, -1.097561, -0.5182927, 20.88235
7.562633, -0.05102539, 0.006835938, 0.8178711, -1.036585, -1.128049, -0.5792683, 20.97647
7.572081, -0.0546875, 0.005615234, 0.8183594, -1.25, -1.097561, -0.5792683, 21.02353
7.581448, -0.04882813, 0.002929688, 0.8173828, -1.189024, -1.036585, -0.6402439, 20.97647
7.590848, -0.05102539, 0.005126953, 0.8161621, -1.128049, -1.128049, -0.5487805, 21.02353
7.600188, -0.05664063, 0.007568359, 0.8112793, -1.310976, -1.219512, -0.3963415, 20.88235
7.609579, -0.0534668, 0.002197266, 0.8244629, -1.067073, -1.189024, -0.5487805, 20.92941
7.618971, -0.05810547, 0.009033203, 0.817627, -1.128049, -1.006098, -0.3963415, 20.92941
7.628423, -0.05444336, -0.0009765625, 0.8112793, -1.097561, -1.097561, -0.4268293, 20.97647
7.659195, -0.04956055, 0.0007324219, 0.8227539, -1.219512, -1.067073, -0.5182927, 21.02353
7.669171, -0.05664063, 0.009765625, 0.8110352, -1.036585, -1.097561, -0.5792683, 20.97647
7.678731, -0.05151367, 0.0002441406, 0.8168945, -1.25, -1.280488, -0.4878049, 20.92941
7.688159, -0.05004883, 0.003662109, 0.8186035, -1.158537, -1.128049, -0.4878049, 20.92941
7.697608, -0.05297852, 0.004882813, 0.8266602, -1.097561, -1.219512, -0.5487805, 20.97647
7.706994, -0.05493164, 0.003417969, 0.8154297, -1.280488, -1.097561, -0.4268293, 21.02353
7.716373, -0.05029297, -0.0004882813, 0.8225098, -1.341463, -0.9756098, -0.5182927, 20.92941
7.725751, -0.04663086, 0.009033203, 0.8151855, -1.432927, -0.9756098, -0.4878049, 20.97647
7.735121, -0.05224609, 0.006103516, 0.8161621, -1.158537, -1.158537, -0.4268293, 21.02353
7.744528, -0.05371094, 0.006347656, 0.8149414, -1.189024, -1.280488, -0.3963415, 20.97647
7.775457, -0.05444336, 0.005859375, 0.8078613, -1.219512, -1.097561, -0.4573171, 20.92941
7.785607, -0.04907227, 0.003417969, 0.8195801, -1.067073, -1.036585, -0.5487805, 20.88235
7.795183, -0.05419922, 0.001220703, 0.8178711, -1.25, -1.310976, -0.3963415, 20.97647
7.804571, -0.04858398, 0.005615234, 0.8203125, -1.25, -1.189024, -0.4878049, 21.02353
7.81398, -0.05371094, 0.003662109, 0.8198242, -1.158537, -1.158537, -0.5182927, 20.88235
7.823398, -0.05493164, 0.0078125, 0.8222656, -1.25, -1.128049, -0.5182927, 20.88235
7.832812, -0.05249023, 0.00390625, 0.8151855, -1.158537, -1.25, -0.4268293, 21.02353
7.842255, -0.046875, 0.005859375, 0.8146973, -1.219512, -1.128049, -0.6402439, 20.92941
7.851647, -0.04882813, 0.009765625, 0.8068848, -1.128049, -1.036585, -0.4573171, 21.07059
7.861038, -0.05517578, 0.003417969, 0.8098145, -1.310976, -1.067073, -0.6097561, 20.92941
7.892129, -0.05126953, 0.0007324219, 0.8244629, -1.219512, -1.128049, -0.5182927, 21.02353
7.902233, -0.05078125, 0.008789063, 0.8183594, -1.158537, -1.128049, -0.5792683, 20.97647
7.91182, -0.05200195, 0.002441406, 0.8164063, -1.341463, -1.128049, -0.5182927, 20.88235
7.921187, -0.05419922, 0.0004882813, 0.8249512, -1.25, -1.006098, -0.4573171, 20.92941
7.930558, -0.0546875, 0.003417969, 0.8256836, -1.219512, -0.945122, -0.5487805, 21.11765
7.939915, -0.05444336, 0.006591797, 0.8134766, -1.036585, -1.219512, -0.5792683, 21.07059
7.949269, -0.05004883, 0.006347656, 0.8210449, -0.9756098, -1.097561, -0.5792683, 20.97647
7.958659, -0.05200195, 0.009033203, 0.8137207, -1.219512, -1.280488, -0.4268293, 20.97647
7.968003, -0.05908203, 0.001220703, 0.8120117, -1.067073, -1.158537, -0.7012195, 20.97647
7.977404, -0.05566406, 0.005859375, 0.8166504, -1.097561, -1.097561, -0.6097561, 20.88235
8.008669, -0.04907227, 0.008544922, 0.8259277, -1.219512, -1.158537, -0.5182927, 20.97647
8.01873, -0.05322266, 0.01611328, 0.814209, -1.310976, -1.036585, -0.3963415, 21.02353
8.02831, -0.05102539, 0.005615234, 0.8164063, -1.219512, -1.006098, -0.4878049, 20.97647
8.037707, -0.05151367, 0.005615234, 0.8105469, -1.097561, -1.067073, -0.4878049, 21.07059
8.047075, -0.05004883, 0.004882813, 0.8195801, -1.067073, -1.189024, -0.3353659, 21.02353
8.056503, -0.05249023, 0.005615234, 0.8225098, -1.128049, -1.128049, -0.3963415, 20.97647
8.065888, -0.04785156, 0.0007324219, 0.8139648, -1.25, -1.128049, -0.7926829, 21.02353
8.075261, -0.05566406, 0.0078125, 0.8168945, -1.128049, -1.158537, -0.3963415, 20.97647
8.084625, -0.04785156, 0.006591797, 0.8100586, -1.280488, -1.097561, -0.4878049, 20.88235
8.094028, -0.04394531, 0.004394531, 0.8149414, -1.158537, -1.097561, -0.4878049, 20.92941
8.125481, -0.05029297, 0.00390625, 0.8242188, -1.067073, -1.128049, -0.7317073, 20.97647
8.135598, -0.05615234, 0.005615234, 0.8251953, -1.189024, -1.036585, -0.5182927, 20.92941
8.145113, -0.05493164, 0.002929688, 0.8139648, -1.341463, -1.158537, -0.5487805, 20.97647
8.154545, -0.05639648, 0.002441406, 0.8173828, -1.310976, -1.25, -0.3658537, 20.97647
8.163977, -0.04467773, 0.0002441406, 0.8171387, -1.097561, -1.402439, -0.5792683, 20.92941
8.1734, -0.05273438, -0.0002441406, 0.8161621, -1.341463, -1.097561, -0.4573171, 20.88235
8.182795, -0.05419922, 0.005859375, 0.8083496, -1.097561, -1.097561, -0.5182927, 20.92941
8.192159, -0.05078125, 0.003173828, 0.8168945, -1.097561, -1.128049, -0.4573171, 21.07059
8.201542, -0.04711914, 0.008544922, 0.8125, -1.128049, -1.219512, -0.4268293, 20.92941
8.210912, -0.05200195, 0.003417969, 0.817627, -1.219512, -1.128049, -0.4878049, 21.02353
8.242546, -0.05566406, 0.004394531, 0.8220215, -1.341463, -1.067073, -0.4268293, 21.02353
8.252612, -0.05078125, 0.008300781, 0.8212891, -1.067073, -1.189024, -0.5792683, 20.97647
8.262156, -0.05444336, 0.0009765625, 0.8137207, -1.067073, -1.006098, -0.4878049, 20.83529
8.271551, -0.05175781, 0.001953125, 0.8168945, -1.158537, -1.158537, -0.5792683, 20.92941
8.280985, -0.05615234, 0.006103516, 0.826416, -1.189024, -1.128049, -0.7317073, 20.97647
8.290364, -0.05249023, 0.004150391, 0.8171387, -1.067073, -1.219512, -0.6097561, 21.02353
8.299718, -0.05102539, 0.007324219, 0.8068848, -1.219512, -1.189024, -0.7317073, 20.88235
8.309116, -0.05175781, -0.0002441406, 0.8146973, -1.189024, -1.006098, -0.3963415, 21.02353
8.318492, -0.04907227, 0.01245117, 0.8193359, -1.067073, -1.25, -0.4573171, 21.07059
8.327874, -0.06152344, 0.01123047, 0.8232422, -1.067073, -1.067073, -0.5182927, 20.92941
8.359675, -0.04931641, 0.004394531, 0.817627, -1.158537, -1.067073, -0.6097561, 20.83529
8.369707, -0.05224609, 0.003173828, 0.8271484, -1.067073, -1.128049, -0.6402439, 21.07059
8.379275, -0.05102539, 0.007568359, 0.8098145, -1.25, -1.25, -0.5792683, 21.02353
8.388723, -0.05175781, -0.0002441406, 0.8139648, -1.189024, -1.036585, -0.304878, 21.02353
8.398135, -0.05102539, 0.002197266, 0.8088379, -1.158537, -1.189024, -0.5182927, 20.88235
8.40754, -0.05615234, 0.005371094, 0.8171387, -1.158537, -1.097561, -0.5182927, 20.92941
8.416899, -0.0559082, 0.004638672, 0.8046875, -1.128049, -1.067073, -0.5182927, 20.97647
8.426243, -0.05395508, 0.005615234, 0.8164063, -1.219512, -1.067073, -0.6402439, 20.92941
8.435585, -0.05419922, 0.006835938, 0.8227539, -1.097561, -1.280488, -0.5182927, 21.07059
8.44501, -0.04833984, 0.00390625, 0.8208008, -1.280488, -1.006098, -0.4878049, 21.02353
8.476959, -0.05175781, 0.006591797, 0.815918, -1.067073, -1.158537, -0.4268293, 20.97647
8.486965, -0.04663086, 0.009277344, 0.8254395, -1.189024, -1.006098, -0.5487805, 20.88235
8.496484, -0.05664063, 0.003662109, 0.8088379, -1.006098, -1.067073, -0.4878049, 20.97647
8.505911, -0.05859375, 0.008789063, 0.8154297, -1.067073, -1.097561, -0.4268293, 20.92941
8.515351, -0.05322266, 0.004882813, 0.8156738, -1.128049, -1.158537, -0.4573171, 20.92941
8.524786, -0.04858398, 0.004882813, 0.8205566, -1.158537, -1.036585, -0.4268293, 20.97647
8.534189, -0.04980469, 0.007568359, 0.8071289, -1.219512, -1.036585, -0.6402439, 21.02353
8.543577, -0.05175781, 0.003417969, 0.8215332, -0.9756098, -1.189024, -0.4878049, 21.02353
8.552993, -0.05102539, 0.007568359, 0.8220215, -1.219512, -1.158537, -0.6402439, 21.07059
8.562335, -0.05297852, 0.004150391, 0.8166504, -1.219512, -1.219512, -0.3963415, 20.92941
8.594476, -0.0534668, 0.003173828, 0.8171387, -1.189024, -0.9756098, -0.4268293, 21.02353
8.60452, -0.05029297, 0.0007324219, 0.817627, -1.067073, -1.067073, -0.304878, 21.02353
8.614023, -0.05517578, 0.005371094, 0.8166504, -1.219512, -1.006098, -0.5487805, 21.02353
8.623459, -0.05444336, 0.008544922, 0.8112793, -1.036585, -1.097561, -0.5792683, 20.92941
8.632912, -0.05004883, 0.0007324219, 0.8154297, -1.219512, -1.097561, -0.5182927, 20.97647
8.64233, -0.04907227, 0.003173828, 0.8266602, -1.25, -1.371951, -0.6402439, 20.97647
8.651762, -0.05371094, 0.009521484, 0.815918, -1.158537, -1.067073, -0.5792683, 20.97647
8.661092, -0.05493164, 0.007568359, 0.8120117, -1.219512, -1.128049, -0.6707317, 20.97647
8.670483, -0.0534668, 0.005126953, 0.8220215, -1.128049, -1.006098, -0.3658537, 21.02353
8.679897, -0.05322266, 0.002197266, 0.8112793, -1.036585, -1.097561, -0.6707317, 20.97647
8.712193, -0.05444336, 0.005859375, 0.8115234, -1.25, -1.036585, -0.5182927, 20.92941
8.722361, -0.04614258, 0.009033203, 0.8161621, -1.158537, -1.036585, -0.6097561, 21.02353
8.731844, -0.05322266, 0.006347656, 0.8205566, -1.036585, -1.158537, -0.5487805, 21.07059
8.741258, -0.04931641, 0.0009765625, 0.8205566, -1.189024, -1.128049, -0.6097561, 20.92941
8.750609, -0.04711914, 0.008789063, 0.8154297, -1.158537, -1.006098, -0.5487805, 20.97647
8.760032, -0.05151367, 0.005371094, 0.8190918, -1.158537, -1.036585, -0.5792683, 20.92941
8.769379, -0.05908203, 0.005859375, 0.8181152, -1.158537, -1.189024, -0.3353659, 21.02353
8.778769, -0.05249023, 0.009521484, 0.8227539, -1.158537, -0.9756098, -0.5792683, 21.07059
8.788127, -0.05224609, 0.01000977, 0.8220215, -1.097561, -1.25, -0.5792683, 20.92941
8.797523, -0.05102539, 0.006591797, 0.8139648, -1.402439, -1.067073, -0.4878049, 20.97647
8.829999, -0.05981445, 0.003173828, 0.8139648, -1.036585, -1.006098, -0.6402439, 20.97647
8.840153, -0.0546875, 0.004882813, 0.8149414, -1.371951, -1.25, -0.4573171, 20.97647
8.84965, -0.05493164, 0.005615234, 0.807373, -1.219512, -1.128049, -0.6097561, 20.97647
8.859067, -0.04907227, 0.005615234, 0.8239746, -1.097561, -1.097561, -0.6097561, 21.02353
8.868479, -0.05615234, 0.001708984, 0.8151855, -1.371951, -1.158537, -0.4878049, 21.07059
8.877865, -0.05371094, 0.007568359, 0.8120117, -1.25, -1.067073, -0.6402439, 20.97647
8.887278, -0.05004883, 0.006591797, 0.8200684, -1.158537, -1.280488, -0.7012195, 20.92941
8.89669, -0.05175781, 0.001708984, 0.8190918, -1.219512, -1.158537, -0.5792683, 20.97647
8.906068, -0.04858398, 0.0009765625, 0.814209, -1.128049, -1.219512, -0.6402439, 20.92941
8.915421, -0.05151367, 0.004638672, 0.8261719, -1.158537, -1.189024, -0.6707317, 20.97647
8.94807, -0.05029297, 0.005615234, 0.8183594, -1.158537, -1.310976, -0.6402439, 21.02353
8.958185, -0.05200195, 0.01220703, 0.8225098, -1.219512, -1.128049, -0.4878049, 20.97647
8.967715, -0.05371094, 0.006835938, 0.8193359, -1.067073, -1.006098, -0.5792683, 21.02353
8.977137, -0.05322266, 0.0002441406, 0.8156738, -1.219512, -0.9756098, -0.6097561, 20.88235
8.986533, -0.05639648, 0.003173828, 0.8168945, -1.219512, -1.097561, -0.4573171, 20.97647
8.995938, -0.05297852, 0.006835938, 0.8217773, -1.25, -1.067073, -0.4878049, 20.97647
9.00527, -0.04907227, 0.0007324219, 0.8212891, -1.128049, -1.158537, -0.5487805, 21.02353
9.01461, -0.05004883, 0.004638672, 0.8154297, -1.128049, -1.189024, -0.3963415, 20.97647
9.023996, -0.05273438, 0.006347656, 0.8103027, -1.280488, -1.036585, -0.5487805, 20.97647
9.033392, -0.05053711, 0.005615234, 0.8193359, -1.189024, -0.9756098, -0.5792683, 20.97647
9.066226, -0.05761719, 0.004882813, 0.8188477, -1.128049, -0.9756098, -0.4573171, 21.02353
9.076366, -0.04931641, 0.0, 0.8193359, -1.036585, -1.25, -0.3963415, 20.97647
9.085873, -0.04980469, 0.007080078, 0.815918, -1.341463, -0.9756098, -0.5792683, 21.11765
9.095286, -0.05541992, 0.003662109, 0.8208008, -1.219512, -1.158537, -0.5487805, 20.97647
9.104664, -0.05273438, -0.0002441406, 0.8156738, -1.158537, -1.158537, -0.5182927, 20.97647
9.114077, -0.05151367, 0.003662109, 0.8198242, -1.128049, -1.067073, -0.5182927, 21.11765
9.123468, -0.05493164, 0.004394531, 0.8137207, -1.189024, -1.219512, -0.5487805, 20.97647
9.132899, -0.06030273, 0.004394531, 0.8139648, -1.158537, -1.036585, -0.4268293, 20.92941
9.142263, -0.05444336, 0.005126953, 0.8164063, -1.189024, -1.25, -0.3963415, 20.97647
9.151623, -0.0546875, 0.004394531, 0.8234863, -1.219512, -1.036585, -0.4878049, 21.02353
9.184609, -0.05419922, 0.003417969, 0.8225098, -1.219512, -1.25, -0.7317073, 20.97647
9.194658, -0.05200195, 0.005615234, 0.8220215, -1.067073, -1.067073, -0.6402439, 21.02353
9.20414, -0.0480957, 0.004638672, 0.8208008, -1.341463, -1.280488, -0.7012195, 20.97647
9.213526, -0.04858398, 0.002441406, 0.8222656, -1.097561, -1.189024, -0.5792683, 20.97647
9.222982, -0.05615234, 0.007568359, 0.8166504, -1.310976, -1.067073, -0.6402439, 20.92941
9.232425, -0.05322266, 0.005859375, 0.8181152, -1.097561, -0.9756098, -0.7317073, 20.92941
9.24182, -0.05566406, 0.007080078, 0.8242188, -1.128049, -0.9756098, -0.6097561, 21.02353
9.251172, -0.06469727, 0.006103516, 0.8200684, -1.128049, -1.128049, -0.5182927, 21.07059
9.26059, -0.05297852, 0.008300781, 0.8193359, -1.158537, -1.036585, -0.5792683, 21.02353
9.269939, -0.05566406, 0.009521484, 0.8146973, -1.158537, -1.189024, -0.3963415, 20.97647
9.303065, -0.05151367, 0.004882813, 0.8208008, -1.25, -0.9756098, -0.5182927, 20.92941
9.313147, -0.05517578, 0.00390625, 0.8183594, -1.189024, -1.310976, -0.5182927, 20.97647
9.322613, -0.05639648, 0.003173828, 0.8173828, -1.310976, -0.9756098, -0.5792683, 20.92941
9.33205, -0.04858398, 0.008056641, 0.8203125, -1.280488, -1.036585, -0.4268293, 21.07059
9.341497, -0.05908203, 0.001708984, 0.8127441, -1.158537, -1.067073, -0.5487805, 20.97647
9.350871, -0.05004883, 0.002441406, 0.8181152, -1.067073, -1.158537, -0.5182927, 21.02353
9.360269, -0.05908203, 0.006103516, 0.8149414, -1.280488, -0.945122, -0.6402439, 20.97647
9.369648, -0.05737305, -0.001708984, 0.817627, -1.158537, -1.036585, -0.5792683, 20.92941
9.379036, -0.0534668, 0.004882813, 0.8120117, -1.067073, -1.189024, -0.7317073, 20.97647
9.388417, -0.05102539, 0.006347656, 0.8178711, -1.219512, -1.067073, -0.6402439, 20.97647
9.421747, -0.0546875, 0.008544922, 0.8193359, -1.128049, -1.067073, -0.3353659, 21.02353
9.431928, -0.05175781, 0.008300781, 0.8132324, -1.128049, -0.9756098, -0.6707317, 21.02353
9.441461, -0.05053711, 0.005371094, 0.8105469, -1.128049, -1.067073, -0.5182927, 21.02353
9.450891, -0.05224609, 0.007568359, 0.8161621, -1.158537, -1.25, -0.5487805, 20.97647
9.460294, -0.05322266, 0.006591797, 0.8205566, -1.219512, -1.219512, -0.5487805, 21.02353
9.469645, -0.04882813, 0.001708984, 0.826416, -1.158537, -1.341463, -0.4573171, 20.97647
9.478962, -0.04980469, 0.008789063, 0.8266602, -1.158537, -1.097561, -0.4878049, 20.88235
9.488347, -0.05761719, 0.009521484, 0.8188477, -1.25, -1.128049, -0.7317073, 20.97647
9.497742, -0.05688477, 0.00390625, 0.8085938, -1.189024, -1.067073, -0.4573171, 21.02353
9.507096, -0.04858398, 0.002929688, 0.8151855, -1.097561, -1.006098, -0.4268293, 20.97647
9.540587, -0.05078125, 0.004394531, 0.817627, -1.128049, -1.036585, -0.4573171, 20.97647
9.550694, -0.05004883, 0.005615234, 0.8103027, -1.189024, -1.036585, -0.5792683, 20.92941
9.560128, -0.05029297, 0.006103516, 0.8134766, -1.158537, -1.067073, -0.5792683, 21.02353
9.569515, -0.05053711, 0.006347656, 0.8105469, -1.097561, -1.097561, -0.6707317, 20.97647
9.578888, -0.04785156, 0.007080078, 0.8139648, -1.371951, -1.280488, -0.3963415, 21.02353
9.588294, -0.05053711, 0.008789063, 0.8222656, -1.25, -1.128049, -0.5182927, 20.97647
9.597709, -0.05395508, 0.01049805, 0.8239746, -1.280488, -1.097561, -0.4878049, 20.92941
9.607091, -0.04833984, 0.007080078, 0.8186035, -1.219512, -1.25, -0.5792683, 20.92941
9.616508, -0.05297852, 0.003417969, 0.8149414, -1.219512, -1.280488, -0.5792683, 20.97647
9.625888, -0.05688477, 0.007568359, 0.8151855, -1.219512, -1.006098, -0.5182927, 21.02353
9.659552, -0.04980469, 0.008300781, 0.8178711, -0.945122, -1.189024, -0.5792683, 21.07059
9.669678, -0.04833984, 0.005615234, 0.814209, -1.128049, -1.036585, -0.4878049, 20.97647
9.679194, -0.05786133, 0.002929688, 0.8181152, -1.067073, -0.945122, -0.5182927, 20.97647
9.688582, -0.04492188, 0.008056641, 0.8154297, -1.25, -1.189024, -0.6402439, 21.02353
9.697994, -0.05200195, 0.005859375, 0.8168945, -1.189024, -1.189024, -0.5792683, 20.92941
9.707406, -0.04711914, 0.006591797, 0.8129883, -1.189024, -1.158537, -0.4268293, 20.88235
9.716788, -0.05444336, 0.001953125, 0.8186035, -1.219512, -1.036585, -0.4268293, 20.97647
9.726239, -0.05541992, 0.0007324219, 0.8203125, -1.128049, -1.158537, -0.5792683, 20.97647
9.735564, -0.05029297, 0.004882813, 0.8239746, -1.371951, -1.006098, -0.4878049, 20.88235
9.74496, -0.04638672, 0.005615234, 0.8134766, -1.128049, -1.128049, -0.5792683, 20.92941
9.778828, -0.046875, 0.003173828, 0.8166504, -1.280488, -1.219512, -0.3963415, 21.02353
9.788905, -0.04663086, 0.003173828, 0.8239746, -1.067073, -1.067073, -0.6402439, 21.02353
9.79839, -0.05517578, 0.001220703, 0.8166504, -1.25, -1.097561, -0.5487805, 20.92941
9.807852, -0.0534668, 0.005859375, 0.8168945, -1.219512, -1.158537, -0.5487805, 20.92941
9.817282, -0.04931641, 0.004882813, 0.8188477, -1.310976, -1.128049, -0.6097561, 20.97647
9.826678, -0.05639648, 0.004150391, 0.8115234, -1.036585, -1.189024, -0.5182927, 20.92941
9.836067, -0.05200195, 0.004638672, 0.814209, -1.310976, -1.432927, -0.5182927, 21.07059
9.845421, -0.05249023, 0.003662109, 0.8232422, -1.006098, -1.128049, -0.4573171, 21.02353
9.854796, -0.05517578, 0.005371094, 0.8183594, -1.158537, -1.341463, -0.4573171, 21.07059
9.864107, -0.04980469, 0.005371094, 0.8129883, -1.219512, -1.036585, -0.5487805, 20.92941
9.898105, -0.05566406, -0.0002441406, 0.8183594, -1.280488, -1.219512, -0.3963415, 20.97647
9.9082, -0.05200195, 0.01049805, 0.8215332, -1.158537, -1.189024, -0.3658537, 21.02353
9.917714, -0.05078125, 0.0007324219, 0.8134766, -1.067073, -1.097561, -0.5182927, 20.97647
9.927121, -0.05444336, 0.004150391, 0.8134766, -1.158537, -1.067073, -0.5182927, 21.07059
9.936553, -0.05102539, 0.007324219, 0.8098145, -1.158537, -1.036585, -0.6707317, 21.02353
9.945972, -0.05371094, 0.007568359, 0.8127441, -1.158537, -1.189024, -0.4573171, 21.07059
9.955346, -0.05444336, 0.002685547, 0.8139648, -1.067073, -1.25, -0.3658537, 21.02353
9.964731, -0.05859375, 0.002441406, 0.8183594, -1.25, -1.097561, -0.3963415, 21.07059
9.974112, -0.05859375, 0.008789063, 0.8103027, -1.067073, -1.036585, -0.4878049, 20.92941
9.983474, -0.05639648, 0.005126953, 0.8168945, -1.280488, -1.158537, -0.6097561, 20.97647
10.01773, -0.05004883, 0.00390625, 0.8183594, -1.189024, -1.067073, -0.6402439, 21.07059
10.02799, -0.04760742, 0.0004882813, 0.8100586, -1.189024, -1.036585, -0.5487805, 20.97647
10.03837, -0.04833984, 0.002929688, 0.8149414, -1.189024, -1.097561, -0.2439024, 21.07059
10.04857, -0.04785156, 0.006103516, 0.8149414, -1.280488, -1.25, -0.5487805, 20.88235
10.0587, -0.04589844, 0.002197266, 0.8222656, -1.189024, -1.189024, -0.6097561, 21.02353
10.06883, -0.05371094, 0.001220703, 0.8249512, -1.097561, -0.9756098, -0.6402439, 20.97647
10.07892, -0.05102539, 0.002929688, 0.8215332, -1.128049, -1.067073, -0.6402439, 20.97647
10.08965, -0.05004883, 0.007080078, 0.8178711, -1.158537, -1.097561, -0.5792683, 20.88235
