time,acc_x,acc_y,acc_z,gyro_x,gyro_y,gyro_z,temp
0.0, -0.01782227, 0.01196289, 0.8166504, -1.251908, -1.068702, -0.3740458, 20.08235
0.009464999, -0.02294922, 0.01635742, 0.8320313, -1.152672, -1.167939, -0.4961832, 20.08235
0.018745, -0.01293945, 0.01513672, 0.8208008, -1.381679, -1.259542, -0.5877862, 20.17647
0.027984, -0.01586914, 0.007324219, 0.8217773, -1.030534, -1.076336, -0.6717557, 20.17647
0.037225, -0.01611328, 0.01220703, 0.8259277, -1.236641, -1.061069, -0.3969466, 20.27059
0.046473, -0.01806641, 0.01196289, 0.8166504, -1.007634, -1.091603, -0.4885496, 20.12941
0.055787, -0.02001953, 0.01000977, 0.8149414, -1.160305, -1.091603, -0.3740458, 20.22353
0.064994, -0.02050781, 0.01171875, 0.8225098, -1.29771, -1.129771, -0.610687, 20.17647
0.074193, -0.01464844, 0.01367188, 0.8137207, -1.068702, -0.9465649, -0.6870229, 20.17647
0.083466, -0.01806641, 0.01098633, 0.814209, -1.267176, -1.030534, -0.6793893, 20.22353
0.0991, -0.01464844, 0.01342773, 0.8215332, -1.099237, -1.160305, -0.5572519, 20.12941
0.108538, -0.01074219, 0.01293945, 0.8181152, -1.145038, -0.9923664, -0.5877862, 20.17647
0.117806, -0.01538086, 0.009521484, 0.8190918, -1.198473, -1.320611, -0.6030535, 20.17647
0.127076, -0.02368164, 0.01074219, 0.8156738, -1.137405, -0.9083969, -0.5877862, 20.08235
0.136371, -0.01855469, 0.01000977, 0.8193359, -1.137405, -0.9694656, -0.4961832, 20.12941
0.14565, -0.01586914, 0.009277344, 0.8164063, -1.290076, -1.244275, -0.5114504, 20.17647
0.154835, -0.02050781, 0.01318359, 0.8205566, -1.10687, -1.145038, -0.5114504, 20.27059
0.164051, -0.01831055, 0.01269531, 0.8198242, -1.145038, -1.152672, -0.6412213, 20.17647
0.173306, -0.01757813, 0.0168457, 0.8127441, -1.007634, -1.083969, -0.5648855, 20.17647
0.182575, -0.01489258, 0.0078125, 0.8129883, -1.007634, -0.9236641, -0.6183206, 20.12941
0.197825, -0.02563477, 0.01464844, 0.8195801, -1.137405, -1.183206, -0.6641222, 20.17647
0.207304, -0.01806641, 0.01269531, 0.831543, -1.267176, -1.335878, -0.7328244, 20.17647
0.216552, -0.01147461, 0.01098633, 0.8286133, -1.129771, -1.183206, -0.6030535, 20.12941
0.225813, -0.01757813, 0.009765625, 0.8144531, -1.061069, -1.0, -0.6793893, 20.22353
0.23507, -0.01855469, 0.004638672, 0.8254395, -1.022901, -1.175573, -0.5496183, 20.27059
0.244288, -0.01831055, 0.01342773, 0.8156738, -1.061069, -1.19084, -0.610687, 20.17647
0.253472, -0.02416992, 0.01000977, 0.8151855, -1.160305, -1.061069, -0.5114504, 20.17647
0.262728, -0.01904297, 0.01391602, 0.8154297, -1.244275, -1.091603, -0.3740458, 20.17647
0.271952, -0.01757813, 0.01293945, 0.8244629, -1.122137, -1.320611, -0.5114504, 20.08235
0.281147, -0.01879883, 0.0144043, 0.8164063, -1.19084, -1.259542, -0.5038168, 20.17647
0.296455, -0.01416016, 0.01196289, 0.8225098, -1.244275, -1.061069, -0.4351145, 20.17647
0.305922, -0.01513672, 0.01416016, 0.822998, -1.167939, -1.236641, -0.6259542, 20.17647
0.315136, -0.01977539, 0.008544922, 0.8215332, -1.091603, -1.175573, -0.4503817, 20.12941
0.32431, -0.01757813, 0.01123047, 0.8166504, -1.129771, -1.083969, -0.4656488, 20.12941
0.333557, -0.02441406, 0.007568359, 0.8183594, -1.068702, -1.236641, -0.5267176, 20.17647
0.342856, -0.0144043, 0.01782227, 0.8186035, -1.267176, -1.351145, -0.519084, 20.17647
0.352092, -0.01928711, 0.01049805, 0.8110352, -1.129771, -1.198473, -0.5954198, 20.17647
0.361351, -0.01513672, 0.009033203, 0.8093262, -1.083969, -1.267176, -0.4427481, 20.17647
0.37056, -0.02148438, 0.01147461, 0.8186035, -1.053435, -1.091603, -0.519084, 20.22353
0.379775, -0.02197266, 0.009765625, 0.8188477, -1.160305, -1.19084, -0.4274809, 20.22353
0.395203, -0.01586914, 0.01635742, 0.8215332, -1.19084, -1.19084, -0.5572519, 20.17647
0.404591, -0.01293945, 0.01074219, 0.8254395, -1.19084, -1.183206, -0.5343512, 20.17647
0.413841, -0.0222168, 0.01342773, 0.8120117, -1.137405, -0.8778625, -0.4198473, 20.17647
0.42308, -0.02124023, 0.0078125, 0.8188477, -1.167939, -1.152672, -0.4045802, 20.17647
0.432303, -0.01367188, 0.007324219, 0.8149414, -1.091603, -1.152672, -0.7251908, 20.08235
0.441543, -0.02270508, 0.01733398, 0.8125, -1.229008, -1.045802, -0.4885496, 20.17647
0.450761, -0.01855469, 0.01391602, 0.8217773, -1.305344, -1.198473, -0.5572519, 20.17647
0.459985, -0.02075195, 0.01123047, 0.8164063, -1.175573, -1.152672, -0.5267176, 20.17647
0.469183, -0.02075195, 0.008056641, 0.8210449, -1.21374, -1.007634, -0.6793893, 20.03529
0.478394, -0.01464844, 0.01538086, 0.8100586, -1.076336, -0.9770992, -0.3206107, 20.12941
0.49397, -0.02099609, 0.006347656, 0.8217773, -1.0, -1.290076, -0.4198473, 20.12941
0.503395, -0.01586914, 0.01611328, 0.8078613, -1.137405, -1.045802, -0.5038168, 20.27059
0.512701, -0.01464844, 0.01123047, 0.8178711, -1.10687, -1.137405, -0.5648855, 20.17647
0.521948, -0.01611328, 0.01000977, 0.8164063, -1.236641, -0.9389313, -0.4503817, 20.17647
0.531206, -0.01782227, 0.008544922, 0.8144531, -0.9236641, -1.015267, -0.4274809, 20.17647
0.540478, -0.01855469, 0.008544922, 0.8237305, -1.206107, -1.083969, -0.5801527, 20.17647
0.549685, -0.01953125, 0.01147461, 0.8100586, -1.099237, -1.167939, -0.6946565, 20.27059
0.558929, -0.01489258, 0.01049805, 0.8254395, -1.290076, -1.10687, -0.5038168, 20.27059
0.568133, -0.01147461, 0.01879883, 0.8188477, -1.282443, -1.114504, -0.5114504, 20.17647
0.57736, -0.02124023, 0.01367188, 0.8215332, -1.351145, -1.167939, -0.4732824, 20.17647
0.596934, -0.02124023, 0.0078125, 0.8171387, -1.10687, -1.137405, -0.6183206, 20.27059
0.606402, -0.01708984, 0.007324219, 0.826416, -1.030534, -1.083969, -0.6641222, 20.17647
0.615662, -0.02148438, 0.008056641, 0.8129883, -1.022901, -1.022901, -0.5572519, 20.08235
0.624836, -0.01782227, 0.01220703, 0.8186035, -1.267176, -1.19084, -0.5801527, 20.22353
0.63416, -0.01391602, 0.006835938, 0.8208008, -0.9770992, -1.198473, -0.519084, 20.22353
0.643532, -0.01757813, 0.01098633, 0.8212891, -1.137405, -1.122137, -0.4045802, 20.27059
0.652771, -0.01904297, 0.006835938, 0.8251953, -1.129771, -1.198473, -0.5648855, 20.12941
0.661976, -0.0168457, 0.01293945, 0.8190918, -1.198473, -1.114504, -0.5725191, 20.17647
0.671254, -0.01708984, 0.01123047, 0.8183594, -1.274809, -1.206107, -0.5801527, 20.27059
0.680508, -0.015625, 0.009277344, 0.8225098, -1.129771, -1.183206, -0.4656488, 20.22353
0.700263, -0.01806641, 0.009277344, 0.8251953, -1.122137, -1.152672, -0.3358779, 20.22353
0.709643, -0.01733398, 0.01196289, 0.8139648, -1.259542, -0.8396947, -0.5725191, 20.27059
0.718821, -0.02978516, 0.03076172, 0.8295898, -4.519084, -1.648855, -0.5648855, 20.22353
0.728073, -0.005371094, -0.006347656, 0.7521973, 0.7328244, -0.4580153, -0.3053435, 20.17647
0.737295, -0.02734375, 0.01342773, 0.8557129, -0.4732824, -1.0, -0.6259542, 20.17647
0.746515, -0.01513672, 0.0144043, 0.8259277, -2.610687, -1.167939, -0.778626, 20.17647
0.755813, -0.03979492, 0.02734375, 0.8244629, -6.770992, -2.320611, -0.7328244, 20.22353
0.765079, -0.008300781, 0.0007324219, 0.8010254, -3.961832, -2.671756, -1.038168, 20.12941
0.774312, -0.03100586, 0.06591797, 0.9372559, -15.77863, -4.068702, -1.251908, 20.12941
0.783557, -0.006347656, -0.02539063, 0.7890625, -12.9313, -6.419847, -0.7633588, 20.22353
0.8035339, 0.008789063, -0.02514648, 0.6416016, 1.793893, 0.610687, -0.5419847, 20.17647
0.812936, 0.01098633, -0.01464844, 0.7414551, 7.114504, 3.458015, -0.6564885, 20.27059
0.822201, -0.03515625, 0.007568359, 0.9714355, 7.816794, 0.4045802, -0.4732824, 20.17647
0.831438, -0.03491211, 0.03051758, 0.8791504, 1.977099, -0.9083969, -1.259542, 20.08235
0.840665, -0.03808594, 0.02197266, 0.8549805, -2.465649, -1.70229, -1.541985, 20.27059
0.849914, -0.01269531, -0.0004882813, 0.8166504, -3.099237, -1.694656, -0.6793893, 20.17647
0.859116, -0.01269531, 0.002197266, 0.810791, -2.549618, -1.48855, -0.7328244, 20.17647
0.868389, -0.02197266, 0.005371094, 0.7993164, -1.80916, -1.206107, -0.5954198, 20.17647
0.877613, -0.01098633, 0.004394531, 0.8198242, -0.4122138, -1.282443, -0.6183206, 20.17647
0.886841, -0.01586914, 0.01171875, 0.8413086, -1.244275, -1.198473, -0.6030535, 20.17647
0.906934, -0.01831055, 0.01049805, 0.8527832, -5.145038, -1.984733, -0.8625955, 20.22353
0.916426, -0.015625, 0.01123047, 0.8605957, -5.679389, -2.694656, -0.8015267, 20.12941
0.9257299, -0.02172852, -0.0007324219, 0.8149414, -4.503817, -2.916031, -0.8167939, 20.22353
0.934993, -0.01342773, 0.004638672, 0.796875, -3.648855, -2.099237, -0.9465649, 20.12941
0.944215, -0.02294922, -0.006103516, 0.7783203, -1.19084, -1.320611, -1.19084, 20.12941
0.95345, -0.02246094, -0.003662109, 0.7976074, 0.1068702, -0.1832061, -1.21374, 20.08235
0.962739, -0.02368164, 0.0002441406, 0.8417969, -0.4427481, -1.122137, -1.229008, 20.17647
0.971986, -0.01025391, -0.002441406, 0.8881836, -1.48855, -3.290076, -1.587786, 20.17647
0.9812571, -0.03564453, -0.0004882813, 0.8491211, -2.625954, -4.312977, -2.320611, 20.17647
0.990507, -0.02758789, 0.006591797, 0.7927246, -2.931298, -3.274809, -2.564885, 20.12941
1.010688, -0.0222168, 0.004394531, 0.8288574, -2.526718, -1.877863, -3.244275, 20.17647
1.020085, 0.004150391, 0.0004882813, 0.847168, -3.59542, -2.709924, -3.740458, 20.03529
1.029337, -0.02270508, 0.01489258, 0.8508301, -5.236641, -2.732824, -1.954198, 20.12941
1.038597, -0.005371094, 0.02319336, 0.8547363, -6.992366, -3.206107, -3.10687, 20.17647
1.047893, -0.003173828, 0.007080078, 0.8549805, -7.755725, -3.412214, -2.19084, 20.22353
1.057109, 0.009277344, 0.02832031, 0.871582, -9.770992, -1.442748, -4.40458, 20.12941
1.066354, -0.0559082, 0.02954102, 0.8833008, -16.47328, -3.427481, -6.396946, 20.22353
1.075598, -0.0002441406, -0.01391602, 0.9189453, -17.9313, -3.740458, -7.954198, 20.12941
1.084806, 0.02392578, -0.0793457, 0.940918, -16.93893, -8.633588, -13.29771, 20.12941
1.094028, -0.01586914, -0.0793457, 0.9619141, -12.74046, -16.42748, -17.22137, 20.12941
1.114527, -0.005126953, -0.06860352, 0.8613281, 4.435114, -6.175572, -13.30534, 20.08235
1.123935, -0.03344727, -0.02270508, 0.833252, 15.62595, 19.20611, -7.08397, 20.17647
1.133162, -0.02416992, -0.0144043, 0.8349609, 28.47328, 46.20611, 1.290076, 20.27059
1.142335, -0.03198242, -0.02416992, 0.8100586, 41.9542, 76.34351, 6.503817, 20.12941
1.15152, -0.0534668, -0.05200195, 0.8425293, 53.72519, 101.3206, 9.603053, 20.08235
1.160772, -0.05419922, -0.04492188, 0.9455566, 60.24427, 112.7557, 10.0229, 20.12941
1.169948, -0.1171875, 0.005371094, 0.9592285, 63.0687, 116.2824, 8.557252, 20.27059
1.179107, -0.1240234, 0.04663086, 1.018311, 61.77099, 112.6717, 6.900764, 20.17647
1.188315, -0.1640625, 0.04272461, 1.041992, 58.771, 102.0, 7.183206, 20.17647
1.197494, -0.182373, 0.1206055, 0.9306641, 54.99237, 99.80916, 10.72519, 20.22353
1.218038, -0.1767578, 0.1044922, 0.8933105, 52.21374, 103.7252, 16.67939, 20.12941
1.227454, -0.1604004, 0.08764648, 0.8378906, 49.8397, 111.0076, 13.61069, 20.22353
1.236696, -0.1359863, 0.09033203, 0.7922363, 46.56488, 120.0153, 10.43512, 20.12941
1.24585, -0.1367188, 0.08691406, 0.7753906, 42.26717, 127.2137, 5.335878, 20.17647
1.255063, -0.1452637, 0.07861328, 0.7060547, 33.37405, 139.626, 1.259542, 20.08235
1.264292, -0.1003418, 0.1257324, 0.5981445, 23.71756, 152.1221, -3.442748, 20.17647
1.273511, -0.2268066, 0.01879883, 0.8171387, 16.18321, 138.7023, -14.79389, 20.17647
1.282754, -0.2207031, 0.06005859, 0.7314453, 7.091603, 138.0458, -22.68702, 20.17647
1.291929, -0.2045898, 0.1450195, 0.5212402, -2.442748, 156.916, -24.67939, 20.12941
1.301178, -0.220459, 0.135498, 0.5356445, -9.770992, 172.1908, -25.21374, 20.27059
1.322002, -0.4243164, 0.04663086, 0.7817383, 0.4580153, 147.8779, -28.0, 20.17647
1.331437, -0.4309082, 0.02954102, 0.828125, 8.587787, 128.2901, -26.79389, 20.22353
1.34074, -0.5268555, 0.09912109, 0.9367676, 15.22901, 103.626, -14.80153, 20.27059
1.349972, -0.4853516, 0.2382813, 0.5349121, 6.992366, 108.0076, -4.862596, 20.17647
1.359218, -0.4477539, 0.1516113, 0.4804688, -10.30534, 112.1756, -5.923664, 20.12941
1.368494, -0.3845215, 0.07788086, 0.3989258, -33.8397, 130.374, -16.79389, 20.22353
1.377751, -0.2497559, 0.07739258, 0.3417969, -48.44275, 158.1374, -24.87786, 20.22353
1.386947, -0.342041, 0.02050781, 0.6047363, -47.33588, 173.771, -29.89313, 20.17647
1.396138, -0.3557129, 0.06762695, 0.565918, -40.0687, 192.7023, -30.64122, 20.17647
1.405335, -0.4023438, 0.1105957, 0.5617676, -32.89313, 203.0916, -28.64886, 20.22353
1.426293, -0.6374512, 0.1022949, 0.5922852, -42.66412, 157.3282, -24.43511, 20.22353
1.43576, -0.7055664, 0.07617188, 0.583252, -55.00763, 117.374, -23.18321, 20.12941
1.44498, -0.7561035, 0.04760742, 0.572998, -65.57252, 74.74809, -21.65649, 20.27059
1.454276, -0.7546387, 0.03955078, 0.5400391, -73.0229, 40.8397, -19.64886, 20.17647
1.463517, -0.730957, 0.01831055, 0.529541, -74.67175, 19.06107, -19.47328, 20.08235
1.47277, -0.7419434, -0.05541992, 0.4372559, -70.80153, 17.45038, -19.81679, 20.08235
1.481981, -0.7236328, -0.04907227, 0.401123, -56.78626, 44.46565, -17.22901, 20.17647
1.491211, -0.6589355, -0.06762695, 0.4082031, -34.62595, 89.57252, -12.45038, 20.22353
1.500438, -0.5817871, -0.06347656, 0.3615723, -7.900764, 139.3359, -8.061069, 20.12941
1.509644, -0.5876465, -0.05053711, 0.3884277, 12.84733, 175.3206, -4.885496, 20.12941
1.530837, -0.7297363, 0.01416016, 0.4985352, 20.21374, 161.1756, -8.648855, 20.17647
1.540268, -0.739502, 0.07250977, 0.5043945, 9.488549, 125.2443, -11.61069, 20.17647
1.549494, -0.7583008, 0.07324219, 0.5148926, -4.29771, 79.90839, -12.76336, 20.17647
1.558763, -0.7473145, 0.05737305, 0.3942871, -15.81679, 39.84733, -12.70229, 20.17647
1.568014, -0.7531738, 0.0402832, 0.3552246, -22.96183, 8.458015, -11.79389, 20.22353
1.577266, -0.7558594, 0.02441406, 0.3251953, -25.41985, -13.35878, -10.33588, 20.12941
1.5865, -0.7697754, 0.01513672, 0.2958984, -24.68702, -27.60305, -8.374045, 20.12941
1.595776, -0.7873535, -0.0007324219, 0.2844238, -21.74046, -37.96183, -6.412214, 20.27059
1.604986, -0.8044434, -0.01953125, 0.3269043, -19.27481, -50.15267, -4.068702, 20.22353
1.614228, -0.8505859, -0.05786133, 0.3061523, -17.54962, -60.19847, -4.007634, 20.22353
1.635601, -0.8022461, -0.03076172, 0.3833008, -11.32824, -37.99237, -4.587786, 20.22353
1.645093, -0.6970215, 0.01318359, 0.3154297, -3.061069, 1.221374, -3.114504, 20.17647
1.654318, -0.6118164, 0.005615234, 0.2719727, 11.94656, 46.68703, 0.6793893, 20.17647
1.663587, -0.5722656, -0.02880859, 0.3408203, 25.87023, 79.12977, -0.03816794, 20.17647
1.672868, -0.6337891, -0.003662109, 0.3625488, 30.90076, 94.67175, -1.328244, 20.27059
1.682086, -0.7419434, 0.01489258, 0.4345703, 26.58779, 90.17558, -3.343511, 20.17647
1.691351, -0.8046875, 0.01586914, 0.4584961, 16.54199, 68.75572, -4.91603, 20.17647
1.700567, -0.8544922, 0.02148438, 0.4602051, 4.519084, 39.77863, -5.931298, 20.12941
1.709734, -0.8881836, 0.00390625, 0.4287109, -5.572519, 10.28244, -5.038168, 20.22353
1.718968, -0.8950195, -0.01318359, 0.3723145, -11.73283, -14.56489, -2.908397, 20.22353
1.740486, -0.8674316, -0.02319336, 0.3674316, -16.14504, -57.03053, 2.977099, 20.12941
1.750018, -0.8615723, -0.04101563, 0.4006348, -16.91603, -76.73283, 4.442748, 20.27059
1.759313, -0.8828125, -0.02856445, 0.3815918, -18.9771, -98.83969, 5.267176, 20.12941
1.7686, -0.8847656, -0.04492188, 0.3737793, -21.85496, -123.1145, 5.427481, 20.22353
1.777865, -0.8840332, -0.07421875, 0.4157715, -25.27481, -144.0916, 4.534351, 20.22353
1.787103, -0.8688965, -0.08056641, 0.4475098, -26.60306, -160.1603, 3.053435, 20.12941
1.796339, -0.8012695, -0.03125, 0.442627, -26.18321, -166.6947, 2.59542, 20.22353
1.805586, -0.7067871, -0.05029297, 0.4572754, -22.96183, -166.3588, 2.969466, 20.17647
1.814789, -0.644043, -0.0546875, 0.4309082, -18.64122, -162.3511, 1.419847, 20.17647
1.823981, -0.5966797, -0.09912109, 0.4848633, -11.36641, -156.6183, 1.274809, 20.27059
1.845688, -0.6503906, -0.1071777, 0.611084, -3.282443, -177.9542, 0.4580153, 20.22353
1.855151, -0.6962891, -0.1049805, 0.6831055, -8.78626, -215.3893, -4.40458, 20.08235
1.864456, -0.7575684, -0.1062012, 0.7980957, -19.37405, -248.1832, -11.07634, 20.22353
1.873784, -0.8166504, -0.1186523, 0.8549805, -32.62595, -248.1832, -20.0458, 20.27059
1.883076, -0.7802734, -0.05029297, 0.8657227, -40.92367, -248.1832, -25.12977, 20.12941
1.892306, -0.6933594, 0.02734375, 0.7609863, -43.91603, -248.1832, -24.38168, 20.12941
1.901517, -0.6306152, 0.004394531, 0.5668945, -43.25954, -248.1832, -23.34351, 20.17647
1.910804, -0.4746094, -0.006103516, 0.6088867, -38.33588, -248.1832, -18.76336, 20.22353
1.920051, -0.404541, -0.02441406, 0.5668945, -28.76336, -248.1832, -13.54962, 20.17647
1.929317, -0.2783203, -0.09643555, 0.5939941, -16.0687, -248.1832, -9.465649, 20.17647
1.951247, 0.006591797, -0.1503906, 0.6066895, 12.53435, -248.1832, -15.32061, 20.27059
1.960669, 0.04956055, -0.1958008, 0.6262207, 19.23664, -248.1832, -19.34351, 20.22353
1.969972, 0.07885742, -0.1789551, 0.689209, 20.78626, -248.1832, -22.91603, 20.12941
1.979194, 0.1679688, -0.1538086, 0.7167969, 20.53435, -248.1832, -26.54198, 20.22353
1.988465, 0.168457, -0.1694336, 0.7900391, 19.83206, -248.1832, -29.0687, 20.08235
1.997724, 0.2053223, -0.1501465, 0.8195801, 19.80153, -248.1832, -29.41985, 20.12941
2.006927, 0.2570801, -0.06274414, 0.8366699, 21.29008, -247.0076, -28.30534, 20.22353
2.016098, 0.3220215, -0.03417969, 0.8154297, 24.17557, -230.2977, -26.51145, 20.17647
2.02529, 0.3674316, -0.01782227, 0.8198242, 26.78626, -213.1374, -25.48092, 20.12941
2.034413, 0.4284668, -0.04638672, 0.8381348, 25.48855, -198.9007, -24.9771, 20.22353
2.056463, 0.2954102, -0.0456543, 0.8791504, 20.87023, -205.8779, -22.58779, 20.08235
2.06595, 0.3234863, -0.06811523, 0.8254395, 14.68702, -210.4656, -24.40458, 20.12941
2.075279, 0.4223633, -0.05419922, 0.6906738, 10.77099, -206.771, -23.75573, 20.17647
2.084506, 0.4887695, -0.09082031, 0.5688477, 11.24428, -189.542, -20.87786, 20.27059
2.093681, 0.5102539, -0.123291, 0.6655273, 20.09924, -174.3511, -19.62595, 20.27059
2.102873, 0.6071777, -0.06323242, 0.5905762, 29.42748, -144.7023, -15.08397, 20.12941
2.112072, 0.611084, -0.0078125, 0.4907227, 31.78626, -107.145, -11.43512, 20.27059
2.121375, 0.6606445, 0.04223633, 0.4909668, 27.9542, -81.70993, -6.328244, 20.22353
2.130573, 0.6274414, 0.04638672, 0.5859375, 20.58779, -72.72519, -3.671756, 20.22353
2.139725, 0.5634766, 0.03393555, 0.7214355, 12.67939, -74.09924, -3.473282, 20.22353
2.161958, 0.5002441, 0.02246094, 0.7565918, 18.14504, -52.47328, -5.328244, 20.17647
2.171455, 0.6081543, 0.02612305, 0.5778809, 7.030534, -38.54962, -9.80916, 20.17647
2.180845, 0.5964355, -0.03613281, 0.7753906, 5.458015, -48.96947, -12.49618, 20.27059
2.190096, 0.5930176, -0.01342773, 0.6723633, 3.458015, -44.80917, -13.76336, 20.17647
2.199337, 0.576416, 0.01708984, 0.6623535, 3.534351, -47.61069, -14.67939, 20.17647
2.208572, 0.6271973, 0.04101563, 0.5922852, 2.10687, -42.08397, -12.80153, 20.27059
2.217803, 0.6154785, 0.05395508, 0.5803223, -0.3816794, -36.34351, -9.229008, 20.17647
2.227036, 0.6086426, 0.05493164, 0.5827637, -3.358779, -34.35115, -5.679389, 20.27059
2.236237, 0.6018066, 0.05615234, 0.6118164, -6.847328, -33.84733, -0.9694656, 20.22353
2.245472, 0.6108398, 0.04638672, 0.6035156, -8.580153, -32.41221, 2.290076, 20.31765
2.267771, 0.6772461, 0.05859375, 0.5427246, -8.473283, -20.67939, 8.083969, 20.17647
2.277253, 0.6923828, 0.04394531, 0.5510254, -10.31298, -16.29771, 9.206107, 20.22353
2.286578, 0.6711426, 0.01586914, 0.583252, -11.0687, -12.28244, 9.435115, 20.22353
2.295864, 0.6616211, -0.006591797, 0.6152344, -10.76336, -11.80153, 8.78626, 20.12941
2.305125, 0.6572266, -0.009765625, 0.6159668, -10.12977, -13.05344, 7.175572, 20.22353
2.314334, 0.6791992, -0.0144043, 0.604248, -9.0, -16.03817, 4.900764, 20.22353
2.323566, 0.6787109, -0.02783203, 0.5864258, -8.175572, -19.01527, 1.610687, 20.22353
2.332833, 0.6835938, -0.02490234, 0.5722656, -7.648855, -19.56489, -0.9465649, 20.31765
2.34205, 0.6860352, -0.01513672, 0.5969238, -8.694656, -19.77863, -3.70229, 20.22353
2.351301, 0.6931152, -0.005371094, 0.5888672, -9.625955, -18.72519, -4.496183, 20.22353
2.373846, 0.6955566, 0.005615234, 0.5583496, -11.52672, -11.87023, -2.091603, 20.12941
2.383354, 0.6794434, 0.03076172, 0.5581055, -13.1145, -7.0, 0.4122138, 20.17647
2.392674, 0.692627, 0.01513672, 0.4743652, -11.89313, 6.931298, 3.473282, 20.27059
2.401895, 0.7075195, -0.01074219, 0.4970703, -6.687023, 27.58779, 7.198473, 20.17647
2.411085, 0.6804199, -0.02319336, 0.5454102, -1.030534, 45.72519, 10.12977, 20.22353
2.420267, 0.6589355, -0.03198242, 0.5810547, 0.4732824, 56.61069, 10.70229, 20.27059
2.429426, 0.6335449, -0.03369141, 0.5744629, -1.931298, 60.62595, 9.435115, 20.22353
2.438661, 0.6303711, -0.04833984, 0.5900879, -7.847328, 55.54199, 6.603054, 20.17647
2.447861, 0.59375, -0.05444336, 0.5922852, -15.24428, 45.14504, 4.442748, 20.17647
2.45703, 0.5881348, -0.03149414, 0.590332, -20.63359, 39.50382, 2.748092, 20.12941
2.479741, 0.6882324, 0.001464844, 0.4731445, -22.93893, 88.21374, 4.412214, 20.17647
2.489285, 0.7265625, -0.03515625, 0.4755859, -16.69466, 134.7939, 9.732824, 20.12941
2.49865, 0.7209473, -0.06079102, 0.4711914, -7.290076, 188.1603, 13.15267, 20.22353
2.507887, 0.6916504, -0.06933594, 0.4848633, 2.961832, 239.0458, 14.03817, 20.27059
2.517082, 0.6350098, -0.09545898, 0.5371094, 12.9542, 250.1298, 13.87023, 20.17647
2.526296, 0.5314941, -0.09790039, 0.6105957, 20.50382, 250.1298, 11.77099, 20.17647
2.535516, 0.4404297, -0.08154297, 0.6887207, 22.63359, 250.1298, 9.267176, 20.17647
2.544701, 0.3376465, -0.03808594, 0.7207031, 18.83206, 250.1298, 8.549619, 20.17647
2.553969, 0.2446289, 0.01147461, 0.7614746, 11.42748, 250.1298, 6.198473, 20.22353
2.563129, 0.2583008, 0.06225586, 0.8046875, 7.419847, 250.1298, 3.946565, 20.27059
2.585886, 0.2443848, 0.02539063, 0.8613281, 4.48855, 243.2901, 1.19084, 20.22353
2.595412, 0.1989746, 0.0637207, 0.7641602, 4.946565, 229.5496, 2.396947, 20.27059
2.604704, 0.1376953, 0.05615234, 0.7563477, 6.587786, 217.7862, 5.167939, 20.17647
2.613965, 0.03686523, -0.01855469, 0.7397461, 9.633588, 208.7481, 7.19084, 20.27059
2.623175, 0.03320313, -0.0534668, 0.7490234, 13.36641, 194.6794, 7.160306, 20.17647
2.632352, 0.009033203, -0.06811523, 0.7727051, 13.55725, 177.4275, 6.045802, 20.27059
2.641586, -0.04956055, -0.04858398, 0.8251953, 12.30534, 150.7786, 4.51145, 20.22353
2.650904, -0.1140137, -0.006591797, 0.9077148, 5.48855, 114.0305, 2.282443, 20.27059
2.660133, -0.1669922, 0.01586914, 0.989502, -6.465649, 72.60305, -0.4351145, 20.22353
2.669308, -0.1252441, 0.01879883, 0.9470215, -18.35114, 37.03053, -3.244275, 20.22353
2.692439, -0.03881836, -0.004394531, 0.8571777, -28.80916, -12.0, -5.427481, 20.22353
2.702036, -0.04370117, -0.02319336, 0.8405762, -26.17557, -18.53435, -5.755725, 20.22353
2.711465, -0.05664063, -0.03955078, 0.8293457, -21.16794, -19.49618, -5.656488, 20.22353
2.720759, -0.0456543, -0.04003906, 0.8181152, -14.61832, -5.862596, -6.450382, 20.22353
2.729988, -0.02075195, -0.06420898, 0.8059082, -2.564885, 13.1145, -5.114504, 20.12941
2.739223, 0.002929688, -0.08154297, 0.8134766, 10.70992, 36.28244, -3.526718, 20.22353
2.748446, -0.01538086, -0.07128906, 0.8171387, 20.9771, 55.46565, -2.320611, 20.12941
2.75768, -0.06567383, -0.06933594, 0.8530273, 26.08397, 65.07633, -1.70229, 20.12941
2.766914, -0.1098633, -0.05957031, 0.902832, 24.25954, 60.51908, -2.290076, 20.12941
2.776107, -0.1584473, -0.03271484, 0.9475098, 16.31298, 45.43512, -3.229008, 20.17647
2.799396, -0.1582031, -0.01513672, 0.9243164, -5.442748, -3.137405, -4.38168, 20.22353
2.808934, -0.1481934, -0.01464844, 0.8806152, -9.625955, -19.0229, -3.687023, 20.17647
2.8183, -0.135498, -0.0222168, 0.8691406, -10.25954, -30.9542, -2.801527, 20.22353
2.827607, -0.1359863, -0.03295898, 0.8581543, -8.068703, -41.14504, -2.412214, 20.12941
2.836858, -0.1489258, -0.03076172, 0.8640137, -5.862596, -51.08397, -1.763359, 20.31765
2.846092, -0.1413574, -0.02416992, 0.8496094, -3.526718, -58.8855, -1.793893, 20.27059
2.855392, -0.1152344, -0.0456543, 0.8195801, -0.610687, -58.41221, -2.328244, 20.12941
2.864575, -0.05297852, -0.04736328, 0.7675781, 3.984733, -45.06107, -2.870229, 20.17647
2.873739, 0.01342773, -0.03930664, 0.7563477, 10.69466, -23.73282, -2.167939, 20.17647
2.882954, 0.02929688, -0.01391602, 0.7729492, 15.9313, 0.007633588, -1.648855, 20.27059
2.906437, -0.01586914, -0.003173828, 0.8215332, 20.51908, 41.63359, -0.6259542, 20.27059
2.915939, -0.03466797, -0.01123047, 0.8381348, 18.40458, 43.8168, -0.740458, 20.17647
2.925202, -0.07739258, -0.006835938, 0.8730469, 12.53435, 37.52672, -0.8244275, 20.17647
2.934374, -0.1069336, 0.005126953, 0.8815918, 4.725191, 25.12214, -1.038168, 20.17647
2.943671, -0.1147461, 0.008300781, 0.862793, -3.381679, 12.20611, -0.4122138, 20.27059
2.952914, -0.1135254, 0.01123047, 0.8493652, -7.946565, 1.122137, 0.6335878, 20.17647
2.96214, -0.1000977, 0.01904297, 0.8469238, -10.16794, -7.48855, 2.725191, 20.17647
2.971381, -0.09350586, 0.007568359, 0.8305664, -11.0229, -13.78626, 4.541985, 20.17647
2.980601, -0.09448242, -0.003417969, 0.8251953, -10.9542, -18.37405, 5.648855, 20.17647
2.989789, -0.08959961, -0.01196289, 0.814209, -11.38931, -20.41985, 5.290076, 20.22353
3.013408, -0.04443359, -0.02124023, 0.7502441, -7.389313, -3.839695, 1.687023, 20.27059
3.023061, 0.0, -0.04882813, 0.7485352, 0.5496183, 14.35114, 2.351145, 20.22353
3.032345, 0.004394531, -0.0324707, 0.744873, 7.08397, 29.0458, 2.48855, 20.27059
3.041537, -0.03198242, -0.02563477, 0.7702637, 9.534351, 35.58016, 1.770992, 20.27059
3.050778, -0.06420898, -0.02563477, 0.8139648, 8.038168, 34.74046, 0.5114504, 20.17647
3.060017, -0.09179688, -0.01464844, 0.8278809, 3.625954, 27.45038, -0.519084, 20.17647
3.06926, -0.1101074, -0.007324219, 0.8391113, -1.679389, 17.03053, -0.961832, 20.17647
3.078517, -0.1237793, -0.009033203, 0.8300781, -5.938931, 5.603054, -0.5801527, 20.22353
3.087838, -0.1193848, -0.002929688, 0.8303223, -8.717557, -4.206107, 0.2366412, 20.31765
3.097105, -0.1101074, -0.01049805, 0.8222656, -10.28244, -12.35878, 1.091603, 20.22353
3.120918, -0.1040039, -0.02929688, 0.8029785, -9.412213, -20.23664, 0.5954198, 20.17647
3.130552, -0.08398438, -0.02807617, 0.7915039, -7.755725, -19.33588, -0.1679389, 20.22353
3.139892, -0.07885742, -0.02368164, 0.791748, -6.671756, -16.67176, -0.9312977, 20.17647
3.149118, -0.06958008, -0.01342773, 0.793457, -5.969466, -9.206107, -2.114504, 20.27059
3.158399, -0.02099609, -0.02661133, 0.7758789, -2.748092, 0.9847328, -1.770992, 20.17647
3.167697, -0.02661133, -0.01464844, 0.7885742, 0.9847328, 11.20611, -1.641221, 20.17647
3.176943, -0.0402832, -0.02075195, 0.8110352, 4.328244, 19.56489, -1.480916, 20.17647
3.186153, -0.06787109, -0.02661133, 0.8110352, 6.59542, 23.20611, -1.435114, 20.17647
3.195391, -0.09204102, -0.02758789, 0.8310547, 6.755725, 20.39695, -1.603053, 20.17647
3.204606, -0.1154785, -0.01123047, 0.8432617, 4.274809, 13.50382, -1.908397, 20.17647
3.228627, -0.1164551, 0.001464844, 0.8398438, -3.89313, -7.641222, -2.007634, 20.22353
3.238239, -0.1101074, -0.02075195, 0.8105469, -5.221374, -11.19084, -1.656489, 20.27059
3.247615, -0.0847168, -0.02172852, 0.8093262, -4.870229, -11.85496, -0.9083969, 20.22353
3.256955, -0.08056641, -0.01220703, 0.8098145, -3.610687, -10.60305, -0.1145038, 20.17647
3.26629, -0.07983398, -0.01879883, 0.8151855, -2.51145, -8.885496, 0.5725191, 20.22353
3.275476, -0.08569336, -0.008300781, 0.8269043, -2.137405, -7.412214, 0.9389313, 20.12941
3.284648, -0.07885742, -0.005615234, 0.8129883, -2.328244, -4.732824, 0.519084, 20.12941
3.293898, -0.07104492, -0.01269531, 0.7963867, -1.748092, -0.4274809, 0.3587786, 20.12941
3.303159, -0.06665039, -0.01782227, 0.7924805, 0.1374046, 3.755725, 1.10687, 20.17647
3.312367, -0.08081055, -0.01928711, 0.8071289, 1.557252, 5.030534, 1.412214, 20.17647
3.336475, -0.1162109, -0.01757813, 0.8256836, -2.259542, -3.572519, 1.274809, 20.27059
3.346079, -0.09765625, -0.01342773, 0.8293457, -3.984733, -7.015267, 1.740458, 20.17647
3.355422, -0.09790039, -0.01708984, 0.8249512, -6.030534, -9.961832, 1.900763, 20.08235
3.364679, -0.08813477, -0.006103516, 0.8132324, -7.38168, -11.16794, 2.137405, 20.27059
3.373903, -0.07958984, -0.01245117, 0.8132324, -7.793893, -10.60305, 2.053435, 20.17647
3.383155, -0.07519531, -0.01464844, 0.809082, -7.61832, -9.244275, 1.946565, 20.17647
3.392399, -0.07421875, -0.0234375, 0.8195801, -7.038168, -8.152672, 1.389313, 20.27059
3.401652, -0.07958984, -0.0222168, 0.8041992, -5.938931, -6.312977, 0.8778625, 20.17647
3.410899, -0.07543945, -0.02832031, 0.8000488, -4.229008, -3.748092, 0.8244275, 20.17647
3.420147, -0.06298828, -0.02490234, 0.7980957, -2.427481, -0.4198473, -0.1145038, 20.27059
3.444514, -0.08642578, -0.03540039, 0.8112793, 4.580153, 3.450382, -0.1755725, 20.08235
3.454161, -0.09765625, -0.03515625, 0.8166504, 6.572519, 2.274809, -0.1908397, 20.12941
3.463472, -0.07910156, -0.03125, 0.8168945, 8.114504, 0.8549618, 0.1603053, 20.12941
3.47275, -0.07763672, -0.02246094, 0.8110352, 9.183207, 0.09160305, 0.6030535, 20.22353
3.481991, -0.06494141, -0.009277344, 0.8239746, 10.30534, -0.4045802, 1.10687, 20.27059
3.491278, -0.06640625, -0.007568359, 0.8112793, 11.0458, -0.2900764, 1.709924, 20.22353
3.500457, -0.06567383, -0.0078125, 0.8022461, 11.87786, -0.9770992, 1.748092, 20.31765
3.509638, -0.06762695, -0.005615234, 0.7895508, 12.55725, -0.7480916, 1.938931, 20.27059
3.518844, -0.06494141, -0.006103516, 0.777832, 14.01527, -0.8167939, 2.183206, 20.27059
3.528047, -0.07080078, -0.002441406, 0.7929688, 16.83969, -2.656489, 2.80916, 20.17647
3.55255, -0.1035156, 0.009521484, 0.8200684, 28.0687, -10.69466, 4.770992, 20.22353
3.562194, -0.08154297, 0.006835938, 0.8139648, 34.44275, -13.44275, 5.839694, 20.27059
3.571491, -0.08691406, 0.01269531, 0.8232422, 42.45801, -15.39695, 6.343512, 20.17647
3.580812, -0.06713867, 0.01000977, 0.8120117, 51.45038, -14.8397, 7.603054, 20.27059
3.589977, -0.06225586, 0.01757813, 0.8156738, 62.39695, -12.54962, 8.442748, 20.17647
3.599204, -0.04760742, 0.02441406, 0.7971191, 76.51908, -10.41985, 9.702291, 20.17647
3.608419, -0.06542969, 0.01123047, 0.7922363, 91.28244, -11.67176, 9.847328, 20.27059
3.617682, -0.07861328, -0.007568359, 0.8085938, 107.855, -17.85496, 8.839695, 20.17647
3.626927, -0.09399414, -0.02880859, 0.8149414, 121.9542, -28.40458, 6.80916, 20.22353
3.636138, -0.08862305, -0.01977539, 0.8059082, 138.2595, -40.12214, 5.206107, 20.27059
3.660845, 0.05322266, 0.1779785, 0.763916, 172.916, -47.94656, 7.931298, 20.27059
3.670468, 0.1057129, 0.2885742, 0.793457, 181.6412, -42.48855, 11.71756, 20.12941
3.679734, 0.1081543, 0.3466797, 0.8342285, 189.4122, -38.60306, 14.87023, 20.27059
3.688942, 0.06298828, 0.3706055, 0.8552246, 199.5878, -38.79389, 17.69466, 20.17647
3.698143, 0.02758789, 0.3222656, 0.8271484, 214.3512, -43.9771, 20.61069, 20.17647
3.707327, -0.02441406, 0.2658691, 0.7543945, 233.1069, -50.69466, 23.01527, 20.22353
3.716521, -0.02832031, 0.1901855, 0.7041016, 250.1298, -56.70992, 24.80916, 20.22353
3.725774, -0.01025391, 0.1665039, 0.6103516, 250.1298, -61.10687, 26.12214, 20.17647
3.734959, 0.01220703, 0.1848145, 0.6030273, 250.1298, -64.82442, 28.83969, 20.27059
3.744131, 0.06469727, 0.2727051, 0.6965332, 250.1298, -68.99236, 31.16794, 20.17647
3.76894, 0.1206055, 0.6582031, 0.6682129, 250.1298, -47.35878, 30.74809, 20.27059
3.778557, 0.2197266, 0.7565918, 0.6184082, 250.1298, -27.12214, 30.12977, 20.08235
3.787843, 0.2734375, 0.7944336, 0.552002, 249.4351, -7.412214, 29.13741, 20.17647
3.797057, 0.2487793, 0.7875977, 0.5375977, 239.1374, 5.068702, 28.54962, 20.17647
3.80632, 0.1940918, 0.8164063, 0.5981445, 223.5496, 1.221374, 28.40458, 20.27059
3.815506, 0.1271973, 0.8168945, 0.59375, 204.7863, -15.00763, 27.01527, 20.22353
3.824676, 0.06030273, 0.8244629, 0.609375, 184.4351, -35.56489, 24.70992, 20.22353
3.8339, 0.0324707, 0.8046875, 0.5905762, 163.3359, -55.99237, 23.0229, 20.12941
3.843146, 0.01635742, 0.796875, 0.5263672, 144.3206, -70.67175, 21.60306, 20.22353
3.852313, 0.03930664, 0.840332, 0.4592285, 128.7176, -74.9313, 19.89313, 20.17647
3.877298, 0.08789063, 0.873291, 0.2758789, 93.15268, -53.78626, 13.76336, 20.12941
3.886895, 0.08959961, 0.9091797, 0.2431641, 77.19084, -42.40458, 10.63359, 20.17647
3.89623, 0.1140137, 0.9157715, 0.2507324, 59.90077, -30.07634, 8.473283, 20.27059
3.905459, 0.1594238, 0.9360352, 0.2194824, 41.0458, -20.07634, 7.244275, 20.17647
3.914629, 0.1594238, 0.942627, 0.2231445, 22.29008, -14.0229, 6.625954, 20.22353
3.923844, 0.1716309, 0.9287109, 0.2416992, 5.938931, -9.465649, 4.549618, 20.17647
3.933106, 0.1430664, 0.8864746, 0.244873, -7.244275, -4.78626, 2.381679, 20.22353
3.942318, 0.1152344, 0.8364258, 0.2568359, -17.09924, -1.687023, -0.2748091, 20.22353
3.951464, 0.09765625, 0.7912598, 0.2658691, -23.06107, -0.5648855, -2.80916, 20.36471
3.960661, 0.09716797, 0.7456055, 0.2841797, -25.63359, -0.480916, -4.10687, 20.17647
3.9858, 0.1054688, 0.7473145, 0.3295898, -18.25954, -2.641221, -5.114504, 20.12941
3.995488, 0.1105957, 0.7558594, 0.3356934, -11.77099, -0.9083969, -5.374046, 20.22353
4.004773, 0.1269531, 0.7529297, 0.3010254, -4.89313, 2.923664, -5.465649, 20.22353
4.014004, 0.1464844, 0.7607422, 0.3017578, -1.305344, 7.244275, -5.648855, 20.17647
4.023289, 0.1311035, 0.7956543, 0.300293, -1.206107, 10.99237, -6.480916, 20.17647
4.03251, 0.1464844, 0.8325195, 0.3139648, -4.526718, 13.38168, -7.068702, 20.22353
4.041727, 0.1499023, 0.8649902, 0.3295898, -10.39695, 14.85496, -8.229008, 20.22353
4.050887, 0.1484375, 0.8811035, 0.3198242, -18.31298, 16.25191, -9.343512, 20.22353
4.060124, 0.1591797, 0.8740234, 0.3217773, -26.54198, 17.21374, -10.21374, 20.17647
4.069291, 0.1628418, 0.8625488, 0.3171387, -34.74809, 17.53435, -11.20611, 20.17647
4.094599, 0.1474609, 0.8461914, 0.3457031, -61.99237, 8.847328, -14.06107, 20.31765
4.104203, 0.1345215, 0.847168, 0.3955078, -71.69466, 2.465649, -14.87023, 20.17647
4.113471, 0.1296387, 0.8359375, 0.4035645, -80.01527, -2.564885, -15.12214, 20.22353
4.122792, 0.1413574, 0.8310547, 0.4360352, -87.80916, -6.320611, -15.0687, 20.17647
4.132015, 0.1362305, 0.8327637, 0.465332, -95.78627, -9.099236, -15.83206, 20.31765
4.141279, 0.1164551, 0.8378906, 0.4782715, -103.8702, -9.847328, -17.48855, 20.27059
4.150481, 0.09985352, 0.8405762, 0.4729004, -113.1985, -7.900764, -19.38168, 20.17647
4.159679, 0.1071777, 0.8132324, 0.4768066, -124.1756, -2.725191, -21.67939, 20.27059
4.168911, 0.112793, 0.8276367, 0.4768066, -137.8779, 3.022901, -24.01527, 20.12941
4.178083, 0.07836914, 0.824707, 0.4909668, -152.8473, 8.633588, -25.48855, 20.22353
4.203556, 0.09667969, 0.7749023, 0.4985352, -205.3817, 29.28244, -27.48092, 20.22353
4.213266, 0.09643555, 0.7661133, 0.5256348, -229.084, 32.36641, -28.47328, 20.22353
4.222546, 0.1159668, 0.7492676, 0.5925293, -248.1832, 27.9542, -28.70992, 20.27059
4.231821, 0.1176758, 0.7233887, 0.7155762, -248.1832, 15.52672, -28.8626, 20.17647
4.241051, 0.05883789, 0.7185059, 0.8156738, -248.1832, -1.335878, -29.25191, 20.12941
4.250235, 0.04516602, 0.6862793, 0.8925781, -248.1832, -21.15267, -27.40458, 20.17647
4.2594, 0.06494141, 0.6342773, 0.8811035, -248.1832, -39.76336, -22.60305, 20.27059
4.268628, 0.08862305, 0.5322266, 0.8999023, -248.1832, -54.51145, -18.23664, 20.27059
4.277835, 0.06420898, 0.3928223, 0.7854004, -248.1832, -58.94657, -15.92366, 20.22353
4.286983, 0.02270508, 0.2663574, 0.6904297, -248.1832, -55.35878, -13.24427, 20.31765
4.312676, 0.267334, 0.07885742, 0.6057129, -248.1832, 7.816794, 0.3816794, 20.27059
4.322376, 0.2810059, 0.03027344, 0.6030273, -248.1832, 43.75573, 2.610687, 20.12941
4.331718, 0.2424316, -0.01367188, 0.5649414, -248.1832, 76.92367, 1.89313, 20.17647
4.340969, 0.2197266, -0.07250977, 0.5339355, -248.1832, 107.1679, -0.6946565, 20.22353
4.350179, 0.2277832, -0.06811523, 0.5036621, -248.1832, 128.5038, -4.10687, 20.22353
4.35937, 0.1298828, -0.1784668, 0.6723633, -248.1832, 136.9313, -8.160305, 20.22353
4.368562, 0.1247559, -0.1750488, 0.7668457, -248.1832, 131.8855, -12.61832, 20.27059
4.377766, 0.01757813, -0.1989746, 0.8935547, -248.1832, 112.2748, -16.0, 20.17647
4.387016, -0.01025391, -0.2402344, 0.9470215, -248.1832, 82.51908, -14.42748, 20.17647
4.396284, -0.05566406, -0.2624512, 1.040527, -248.1832, 47.41221, -11.0687, 20.27059
4.422132, -0.04418945, -0.3515625, 0.7497559, -248.1832, 15.9084, -1.740458, 20.12941
4.43183, -0.05078125, -0.4528809, 0.6784668, -241.1374, 35.8168, -2.21374, 20.17647
4.441152, -0.02270508, -0.5229492, 1.12207, -209.8855, 50.61832, -2.236641, 20.27059
4.450447, -0.1245117, -0.467041, 0.2543945, -165.5802, 57.16794, 0.9465649, 20.27059
4.459702, -0.04858398, -0.4111328, 0.701416, -149.9695, 49.44275, 1.458015, 20.17647
4.468909, -0.03027344, -0.4318848, 0.704834, -144.687, 37.25191, 3.099237, 20.17647
4.478153, -0.06152344, -0.5522461, 0.6328125, -144.8855, 31.82443, 1.160305, 20.27059
4.487399, -0.03833008, -0.6015625, 0.6745605, -146.3664, 32.8168, 0.1908397, 20.27059
4.496601, -0.02294922, -0.6254883, 0.6279297, -145.603, 33.29771, -1.961832, 20.27059
4.505813, -0.07324219, -0.6459961, 0.6489258, -140.9695, 29.35878, -3.076336, 20.22353
4.531763, -0.1367188, -0.6274414, 0.6003418, -111.2137, 6.534351, -1.541985, 20.22353
4.54152, -0.1472168, -0.6086426, 0.6220703, -92.75573, 0.2671756, -1.412214, 20.17647
4.550857, -0.1162109, -0.6113281, 0.6252441, -76.12977, -1.541985, -1.068702, 20.17647
4.560103, -0.0871582, -0.6225586, 0.5019531, -57.74046, 4.099236, -0.9770992, 20.27059
4.569324, -0.06494141, -0.6450195, 0.3886719, -33.79389, 10.77099, 0.519084, 20.12941
4.578606, -0.0793457, -0.6137695, 0.4660645, -20.74809, 12.9313, 1.198473, 20.12941
4.587865, -0.01806641, -0.6157227, 0.4567871, -19.96183, 15.64886, 0.6259542, 20.17647
4.59711, -0.02514648, -0.6806641, 0.3789063, -21.46565, 21.73282, -2.167939, 20.22353
4.606386, -0.05151367, -0.7246094, 0.4165039, -26.10687, 22.52672, -4.328244, 20.12941
4.615613, -0.09228516, -0.7219238, 0.4848633, -34.10687, 16.0458, -6.458015, 20.22353
4.641809, -0.1091309, -0.7236328, 0.5041504, -49.22901, -10.57252, -8.793893, 20.17647
4.65153, -0.1010742, -0.7512207, 0.5471191, -47.08397, -15.58015, -7.389313, 20.22353
4.660851, -0.09716797, -0.7509766, 0.5356445, -40.76336, -16.80916, -5.320611, 20.22353
4.670124, -0.08227539, -0.7607422, 0.4941406, -31.0229, -13.9771, -2.396947, 20.27059
4.679414, -0.0612793, -0.7546387, 0.4567871, -20.09924, -8.671756, -0.2137404, 20.17647
4.688713, -0.02075195, -0.6796875, 0.442627, -13.30534, -3.328244, 0.3587786, 20.17647
4.697932, -0.007080078, -0.6518555, 0.4072266, -10.55725, -1.519084, 0.389313, 20.27059
4.707152, -0.02661133, -0.6689453, 0.4304199, -11.52672, -3.473282, 1.618321, 20.17647
4.716414, -0.04785156, -0.6882324, 0.4350586, -14.38931, -6.587786, 3.282443, 20.27059
4.725674, -0.06469727, -0.7253418, 0.4509277, -17.54198, -8.19084, 4.320611, 20.17647
4.752043, -0.1206055, -0.7697754, 0.4621582, -16.83206, -10.58779, 2.572519, 20.22353
4.761814, -0.1352539, -0.7770996, 0.5041504, -15.41221, -10.76336, 1.587786, 20.22353
4.7712, -0.130127, -0.8088379, 0.5039063, -14.32825, -10.0, 1.152672, 20.22353
4.780455, -0.1115723, -0.8168945, 0.5192871, -13.51908, -7.412214, 0.6183206, 20.12941
4.789639, -0.09082031, -0.7910156, 0.4841309, -13.9313, -4.625954, 0.0, 20.17647
4.798895, -0.06689453, -0.763916, 0.4853516, -15.31298, -2.603053, -0.7709923, 20.22353
4.808161, -0.06762695, -0.7495117, 0.4291992, -14.81679, -1.328244, -1.465649, 20.22353
4.817428, -0.04125977, -0.7319336, 0.4099121, -12.36641, -2.916031, -2.450382, 20.22353
4.826692, -0.08300781, -0.7236328, 0.4858398, -9.412213, -6.320611, -3.198473, 20.12941
4.835915, -0.08837891, -0.7363281, 0.4675293, -3.648855, -7.801527, -3.419847, 20.22353
4.862421, -0.07226563, -0.7692871, 0.4672852, 24.22137, -7.778626, -2.0, 20.22353
4.872179, -0.07617188, -0.7785645, 0.4787598, 35.57252, -7.687023, -0.8167939, 20.27059
4.881517, -0.07788086, -0.7900391, 0.5070801, 45.52672, -7.175572, 0.3053435, 20.08235
4.890754, -0.07104492, -0.7988281, 0.5192871, 53.8397, -4.473282, 0.6641222, 20.17647
4.900012, -0.06054688, -0.7958984, 0.5202637, 61.12978, -1.427481, 0.9236641, 20.22353
4.909279, -0.04638672, -0.7675781, 0.5244141, 67.09924, -0.6946565, 0.8549618, 20.17647
4.918495, -0.06274414, -0.7399902, 0.5319824, 72.51908, -2.862595, 0.6946565, 20.17647
4.927745, -0.08276367, -0.7260742, 0.541748, 78.73283, -7.129771, 0.0610687, 20.17647
4.936962, -0.08666992, -0.7060547, 0.5039063, 87.80153, -11.69466, -0.03053435, 20.27059
4.946194, -0.1074219, -0.6801758, 0.5146484, 101.7557, -15.10687, -0.1221374, 20.27059
4.972927, -0.004882813, -0.6101074, 0.5219727, 144.3283, -10.05344, 7.740458, 20.27059
4.982701, -0.03173828, -0.609375, 0.5268555, 164.3206, -6.175572, 10.9771, 20.22353
4.992052, -0.05175781, -0.6054688, 0.5791016, 186.3359, -3.885496, 14.71756, 20.36471
5.001381, -0.05883789, -0.619873, 0.5817871, 207.8855, -1.503817, 17.82443, 20.27059
5.010666, -0.06152344, -0.6140137, 0.6220703, 226.1756, 1.51145, 19.35114, 20.27059
5.019835, -0.05541992, -0.5593262, 0.6245117, 238.9847, 3.938931, 17.85496, 20.27059
5.029051, -0.06787109, -0.5026855, 0.6464844, 247.9313, 1.78626, 14.99237, 20.27059
5.038288, -0.09228516, -0.463623, 0.6787109, 250.1298, -5.061069, 10.92366, 20.17647
5.047551, -0.1203613, -0.4309082, 0.7456055, 250.1298, -16.74046, 5.908397, 20.17647
5.056805, -0.1220703, -0.3823242, 0.7485352, 245.9466, -28.0687, -0.1984733, 20.36471
5.083694, -0.01806641, -0.3146973, 0.6171875, 241.6336, -44.93893, -3.679389, 20.17647
5.093392, 0.01318359, -0.2600098, 0.6259766, 239.542, -43.1145, -1.122137, 20.27059
5.102775, 0.09423828, -0.1958008, 0.6538086, 235.5649, -38.23664, 3.40458, 20.17647
5.111995, 0.09765625, -0.1464844, 0.7028809, 225.7633, -34.96183, 8.580153, 20.17647
5.121258, 0.1120605, -0.08227539, 0.8791504, 205.8321, -35.85496, 14.16794, 20.17647
5.130497, 0.06347656, -0.02246094, 0.9350586, 180.4275, -39.44275, 18.21374, 20.22353
5.139674, 0.07617188, 0.04223633, 0.9765625, 152.6183, -46.09924, 21.52672, 20.31765
5.148906, 0.01953125, 0.07788086, 0.954834, 124.5496, -50.70992, 20.45802, 20.31765
5.158113, -0.03173828, 0.09399414, 0.9384766, 99.0458, -53.76336, 18.55725, 20.22353
5.167301, -0.04541016, 0.04003906, 0.8815918, 80.31299, -55.22901, 17.66412, 20.17647
5.194388, 0.01977539, -0.06030273, 0.7695313, 65.83969, -24.45801, 18.51145, 20.31765
5.204138, 0.005126953, -0.03320313, 0.7900391, 65.18321, -11.8855, 16.22137, 20.27059
5.213486, -0.002441406, 0.0002441406, 0.8273926, 61.51145, -3.641221, 14.0229, 20.22353
5.222775, -0.005371094, 0.04614258, 0.8518066, 52.83206, 1.175573, 11.05344, 20.22353
5.23202, -0.02929688, 0.08447266, 0.876709, 41.24427, 1.923664, 7.343512, 20.12941
5.241228, -0.01928711, 0.1206055, 0.8718262, 27.9313, 1.687023, 4.564886, 20.17647
5.250457, -0.005371094, 0.1381836, 0.8491211, 16.32061, -0.3053435, 2.885496, 20.27059
5.259663, -0.006591797, 0.1350098, 0.8300781, 6.229008, -1.900763, 1.541985, 20.27059
5.26883, 0.01513672, 0.1591797, 0.8459473, -4.053435, -0.6412213, -0.5572519, 20.17647
5.278091, -0.01391602, 0.1450195, 0.8596191, -11.19084, 1.839695, -1.847328, 20.17647
5.305287, 0.01733398, 0.07299805, 0.8217773, -17.55725, 10.17557, -3.236641, 20.22353
5.315032, 0.005126953, 0.04125977, 0.829834, -17.92366, 10.84733, -4.687023, 20.17647
5.324351, 0.003417969, 0.04370117, 0.8649902, -18.86259, 9.534351, -6.099236, 20.17647
5.333568, -0.002929688, 0.04003906, 0.8757324, -21.20611, 6.51145, -7.572519, 20.22353
5.342873, -0.002685547, 0.04711914, 0.8862305, -23.16031, 3.183206, -8.717557, 20.22353
5.352127, 0.02124023, 0.04125977, 0.8378906, -23.12977, 2.709924, -8.862596, 20.27059
5.361358, 0.04296875, 0.04101563, 0.8430176, -22.79389, 4.946565, -8.435115, 20.22353
5.370599, 0.05932617, 0.05249023, 0.8251953, -20.59542, 8.519084, -7.259542, 20.27059
5.379809, 0.04907227, 0.04467773, 0.8078613, -17.19847, 10.68702, -5.801527, 20.27059
5.388956, 0.04541016, 0.02661133, 0.7976074, -14.19847, 10.87023, -4.89313, 20.22353
5.416344, -0.001708984, 0.01953125, 0.8498535, -13.75573, -2.29771, -3.320611, 20.22353
5.426175, -0.01269531, 0.01708984, 0.8613281, -14.87023, -6.664122, -3.061069, 20.17647
5.435529, 0.004638672, 0.02880859, 0.861084, -16.56489, -6.015267, -2.977099, 20.17647
5.445029, 0.02563477, 0.04711914, 0.8608398, -15.94656, 1.870229, -2.473282, 20.17647
5.454246, 0.05712891, 0.04418945, 0.8361816, -12.00763, 11.84733, -0.351145, 20.22353
5.463581, 0.05102539, 0.02709961, 0.8273926, -6.885496, 20.44275, 1.557252, 20.22353
5.472798, 0.04638672, 0.02368164, 0.8005371, -2.335878, 25.06107, 2.839695, 20.22353
5.482007, 0.009033203, 0.002441406, 0.8225098, 1.083969, 25.03817, 3.465649, 20.27059
5.491222, -0.006103516, 0.003662109, 0.8208008, 2.618321, 21.64886, 3.351145, 20.17647
5.500416, -0.02270508, 0.008056641, 0.8186035, 2.206107, 15.64886, 2.793893, 20.22353
5.52812, -0.04931641, 0.01000977, 0.8564453, -7.328244, -10.19847, 1.312977, 20.17647
5.537876, -0.04199219, 0.0, 0.8300781, -8.938931, -16.31298, 1.198473, 20.17647
5.547111, -0.03051758, 0.003662109, 0.8276367, -9.442748, -20.05343, 1.480916, 20.22353
5.556488, -0.01269531, 0.02490234, 0.8125, -8.557252, -20.29008, 1.549618, 20.22353
5.565771, 0.003662109, 0.01611328, 0.7993164, -6.931298, -18.61069, 1.717557, 20.22353
5.574982, 0.02172852, 0.0168457, 0.7897949, -4.251908, -14.19847, 1.358779, 20.27059
5.58416, 0.03393555, 0.01855469, 0.7907715, -1.801527, -8.679389, 1.374046, 20.12941
5.593409, 0.03344727, 0.02758789, 0.814209, -0.1679389, -3.335878, 1.19084, 20.27059
5.602575, 0.03149414, 0.03515625, 0.8352051, 1.351145, 1.564886, 1.267176, 20.27059
5.611772, 0.02807617, 0.03491211, 0.8098145, 2.992366, 4.946565, 1.473282, 20.36471
5.63968, -0.01074219, 0.01342773, 0.8251953, 2.21374, 4.129771, 1.244275, 20.17647
5.649334, -0.01635742, 0.0144043, 0.8293457, -0.2213741, -0.6946565, 0.7328244, 20.31765
5.658621, -0.02001953, 0.0168457, 0.8410645, -3.114504, -5.358778, -0.1145038, 20.17647
5.667969, -0.005859375, 0.01123047, 0.8310547, -4.687023, -7.610687, -0.8854962, 20.17647
5.677266, 0.006347656, 0.01660156, 0.8044434, -5.305344, -7.267176, -1.40458, 20.27059
5.686447, 0.009521484, 0.01586914, 0.8210449, -4.450382, -6.557252, -1.519084, 20.27059
5.695744, 0.01513672, 0.0234375, 0.8217773, -3.221374, -5.557252, -1.19084, 20.27059
5.704966, 0.02075195, 0.02246094, 0.845459, -2.328244, -3.183206, -1.19084, 20.17647
5.714187, 0.015625, 0.03393555, 0.8459473, -2.122137, 0.6946565, -1.267176, 20.17647
5.723484, 0.02783203, 0.02539063, 0.8349609, -0.8854962, 4.587786, -0.9465649, 20.17647
5.751597, 0.002197266, 0.02490234, 0.815918, -0.5267176, 3.0, -1.900763, 20.17647
5.761432, 0.0007324219, 0.02001953, 0.8205566, -2.053435, 0.389313, -2.374046, 20.27059
5.770714, -0.002685547, 0.0222168, 0.8193359, -3.465649, -2.152672, -2.885496, 20.12941
5.780028, -0.003662109, 0.01708984, 0.8137207, -3.70229, -4.832061, -2.916031, 20.27059
5.7893, 0.001220703, 0.015625, 0.8144531, -3.389313, -5.969466, -2.625954, 20.12941
5.798507, 0.01171875, 0.01879883, 0.8103027, -1.961832, -4.793893, -2.465649, 20.22353
5.807755, 0.02172852, 0.02148438, 0.8261719, -1.083969, -2.274809, -1.977099, 20.31765
5.816981, 0.01904297, 0.02441406, 0.8464355, -0.7862596, -0.648855, -1.51145, 20.22353
5.826252, 0.008544922, 0.02294922, 0.847168, -1.229008, -0.8549618, -1.328244, 20.22353
5.835485, 0.009765625, 0.01928711, 0.8469238, -2.320611, -1.748092, -1.305344, 20.22353
5.863757, -0.01074219, 0.005859375, 0.8154297, -3.312977, -5.160306, -1.564886, 20.22353
5.87362, -0.0004882813, 0.008544922, 0.8120117, -2.51145, -3.465649, -1.70229, 20.22353
5.882957, 0.004638672, 0.01220703, 0.8024902, -1.51145, -1.496183, -1.778626, 20.27059
5.892244, 0.008056641, 0.01074219, 0.8137207, -1.519084, 0.2977099, -1.770992, 20.27059
5.901503, 0.01171875, 0.01538086, 0.8049316, -1.946565, 1.503817, -1.496183, 20.17647
5.910722, 0.01489258, 0.01855469, 0.8137207, -2.793893, 2.473282, -1.48855, 20.22353
5.919924, 0.01245117, 0.01513672, 0.822998, -4.351145, 2.251908, -1.114504, 20.31765
5.929115, 0.01123047, 0.01416016, 0.8120117, -5.435114, 1.40458, -0.9160305, 20.22353
5.938305, 0.007568359, 0.0168457, 0.8342285, -6.10687, 0.3587786, -0.5114504, 20.31765
5.947539, -0.0009765625, 0.01855469, 0.8310547, -6.267176, 0.1832061, -0.1832061, 20.17647
5.975985, -0.003662109, 0.008300781, 0.8242188, -4.244275, 0.259542, 0.2900764, 20.12941
5.985819, -0.002929688, 0.009521484, 0.8200684, -3.236641, 1.48855, 0.3282443, 20.17647
5.995007, 0.009277344, 0.01123047, 0.8010254, -2.496183, 2.343511, -0.3435115, 20.12941
6.004267, -0.003173828, 0.00390625, 0.8110352, -2.015267, 3.015267, -0.6335878, 20.31765
6.013518, -0.0004882813, 0.005859375, 0.8117676, -2.053435, 2.854962, -0.8091603, 20.22353
6.02277, 0.004882813, 0.01074219, 0.8103027, -2.671756, 1.206107, -0.4580153, 20.31765
6.031963, 0.009277344, 0.01318359, 0.8120117, -3.816794, -0.8625955, 0.05343511, 20.22353
6.041215, 0.01123047, 0.01416016, 0.8310547, -4.770992, -2.877863, 0.7328244, 20.22353
6.050477, 0.01074219, 0.01220703, 0.8217773, -4.847328, -3.755725, 1.259542, 20.27059
6.059656, 0.009521484, 0.01660156, 0.8068848, -4.70229, -2.549618, 1.618321, 20.27059
6.088278, 0.01196289, 0.01855469, 0.8181152, -2.534351, 5.961832, 2.625954, 20.17647
6.098118, 0.0078125, 0.01733398, 0.8286133, -2.496183, 9.412213, 2.938931, 20.22353
6.107388, 0.01904297, 0.01928711, 0.8156738, -2.641221, 11.77099, 3.847328, 20.31765
6.116683, 0.01611328, 0.008789063, 0.8273926, -3.083969, 11.94656, 4.725191, 20.12941
6.125863, 0.01074219, 0.01269531, 0.8200684, -3.839695, 10.0687, 6.221374, 20.27059
6.135014, 0.00390625, 0.01635742, 0.826416, -4.244275, 7.755725, 7.183206, 20.22353
6.14418, 0.002441406, 0.01245117, 0.8095703, -4.641222, 5.908397, 8.603053, 20.22353
6.153418, 0.008300781, 0.002441406, 0.8217773, -5.274809, 4.389313, 9.59542, 20.17647
6.162607, 0.0009765625, 0.01074219, 0.8251953, -5.572519, 4.129771, 11.01527, 20.22353
6.171836, 0.006347656, 0.01147461, 0.7998047, -5.129771, 5.366412, 12.41985, 20.27059
6.200593, 0.02270508, 0.04760742, 0.8249512, -4.78626, 19.45038, 18.63359, 20.22353
6.210351, 0.01831055, 0.02050781, 0.8222656, -3.137405, 25.54199, 21.51145, 20.17647
6.219669, 0.01196289, 0.02197266, 0.7976074, -2.19084, 28.32825, 25.61832, 20.22353
6.228856, 0.01342773, 0.01611328, 0.8227539, -2.870229, 28.60306, 30.58779, 20.22353
6.238095, -0.008056641, 0.01464844, 0.8325195, -4.221374, 27.60305, 36.35878, 20.22353
6.247336, -0.008544922, 0.0378418, 0.840332, -7.839694, 27.54199, 41.92367, 20.22353
6.256531, -0.01196289, 0.02636719, 0.8261719, -8.358779, 28.15267, 50.01527, 20.22353
6.265789, -0.02514648, -0.005615234, 0.8684082, -6.908397, 26.92366, 59.57252, 20.27059
6.274947, 0.01049805, 0.009765625, 0.8537598, -5.793893, 26.14504, 71.25191, 20.27059
6.284142, 0.02490234, 0.046875, 0.8666992, -6.793893, 29.1145, 83.99237, 20.27059
6.313073, 0.107666, 0.1125488, 0.8535156, -7.38168, 49.26717, 127.603, 20.31765
6.322935, 0.09179688, 0.1206055, 0.7783203, -7.030534, 54.90077, 141.7328, 20.31765
6.332273, 0.06884766, 0.09667969, 0.7404785, -6.198473, 60.69466, 151.3817, 20.12941
6.341482, 0.05297852, 0.1376953, 0.7817383, -7.755725, 60.85496, 158.8473, 20.22353
6.350654, 0.02172852, 0.07592773, 0.7749023, -11.66412, 54.27481, 166.4427, 20.27059
6.359855, -0.03735352, 0.06469727, 0.8034668, -17.59542, 42.16794, 171.0458, 20.17647
6.369038, -0.1442871, 0.02856445, 0.8327637, -27.14504, 25.71756, 172.542, 20.27059
6.378275, -0.2145996, 0.01733398, 0.8317871, -36.1832, 4.10687, 174.4122, 20.22353
6.387466, -0.2514648, -0.002929688, 0.8522949, -43.38932, -17.8855, 178.2824, 20.31765
6.396716, -0.2351074, 0.01416016, 0.8718262, -46.8855, -39.16794, 182.9924, 20.17647
6.425872, -0.1179199, 0.01391602, 0.7341309, -27.60305, -43.39694, 205.1832, 20.27059
6.435602, -0.01391602, 0.0234375, 0.7351074, -19.18321, -32.16031, 218.1221, 20.17647
6.445065, 0.06103516, 0.0378418, 0.7211914, -11.83969, -17.25191, 228.8779, 20.27059
6.454323, 0.03515625, 0.06884766, 0.7436523, -10.87023, 0.9770992, 235.4122, 20.31765
6.463558, -0.03588867, 0.07104492, 0.7849121, -15.0687, 15.03817, 238.0, 20.22353
6.472812, -0.07739258, 0.03393555, 0.9318848, -26.0458, 17.89313, 241.9084, 20.31765
6.482042, -0.1484375, 0.03442383, 0.8625488, -37.0, 11.75573, 246.7939, 20.27059
6.491283, -0.1782227, -0.01391602, 0.8540039, -47.71756, -3.496183, 247.4885, 20.17647
6.50049, -0.2651367, 0.02099609, 0.8994141, -53.20611, -19.09924, 242.6107, 20.27059
6.509725, -0.2770996, 0.01000977, 0.7768555, -49.9771, -28.30534, 236.1756, 20.27059
6.539018, -0.1633301, 0.06030273, 0.8725586, -42.0, -26.32825, 201.8473, 20.22353
6.548843, -0.0300293, 0.01977539, 0.8640137, -34.0458, -17.35878, 200.3282, 20.12941
6.558306, -0.06982422, -0.003417969, 0.8261719, -22.31298, -7.251908, 196.6412, 20.27059
6.567631, -0.03125, 0.01464844, 0.8063965, -9.877863, -0.1526718, 189.0992, 20.31765
6.576948, -0.1235352, -0.005859375, 0.8239746, 1.045802, 4.137404, 179.4351, 20.27059
6.586163, -0.1496582, -0.03540039, 0.7512207, 10.00763, 9.320611, 169.0229, 20.27059
6.595387, -0.07836914, -0.1120605, 0.697998, 13.80916, 15.46565, 155.4198, 20.27059
6.604596, -0.07226563, -0.07714844, 0.7463379, 12.71756, 20.0, 141.6565, 20.27059
6.613827, 0.03369141, -0.0300293, 0.7785645, 10.03817, 21.72519, 124.1603, 20.27059
6.623051, -0.02148438, 0.1291504, 0.7958984, 3.580153, 18.22901, 104.4198, 20.22353
6.65244, -0.1643066, 0.1640625, 0.8291016, -9.160305, -10.93893, 32.87786, 20.27059
6.66234, -0.152832, 0.1025391, 0.8395996, -8.030535, -14.00763, 14.69466, 20.27059
6.671836, -0.1040039, 0.06396484, 0.8803711, -4.725191, -15.06107, 1.259542, 20.17647
6.681107, -0.08276367, 0.03149414, 0.9055176, -1.351145, -14.48092, -10.38931, 20.31765
6.69042, -0.07177734, 0.009765625, 0.8842773, 2.656489, -12.68702, -19.43511, 20.22353
6.699592, -0.06665039, -0.009033203, 0.8823242, 5.374046, -11.03817, -27.70229, 20.22353
6.708889, -0.07641602, 0.01025391, 0.8659668, 6.885496, -10.35115, -33.64885, 20.22353
6.718148, -0.01611328, -0.015625, 0.8586426, 5.030534, -11.9313, -38.1145, 20.31765
6.727338, 0.004394531, -0.03027344, 0.817627, 1.740458, -15.10687, -40.32061, 20.27059
6.736495, 0.0390625, -0.04882813, 0.784668, -1.541985, -17.20611, -42.76336, 20.22353
6.766157, 0.05761719, -0.1303711, 0.6665039, 6.167939, -2.015267, -51.32061, 20.27059
6.776074, 0.01660156, -0.09960938, 0.7514648, 15.35115, 9.290076, -54.76336, 20.22353
6.785591, -0.03271484, -0.111084, 0.8061523, 23.01527, 15.78626, -59.12977, 20.22353
6.79481, -0.03125, -0.06713867, 0.8378906, 28.39695, 18.51145, -65.10687, 20.27059
6.804114, -0.0925293, -0.05712891, 0.857666, 31.0458, 18.43511, -73.71756, 20.17647
6.813358, -0.1445313, -0.02734375, 0.8496094, 30.80916, 15.55725, -84.58015, 20.27059
6.822569, -0.1513672, 0.01147461, 0.838623, 28.32061, 10.94656, -97.55725, 20.27059
6.831833, -0.1584473, 0.03320313, 0.7854004, 23.27481, 4.755725, -113.2519, 20.22353
6.841025, -0.2102051, 0.09985352, 0.7871094, 17.76336, -0.1221374, -132.9008, 20.27059
6.850288, -0.2636719, 0.1694336, 0.7419434, 14.10687, -5.755725, -156.8473, 20.31765
6.880036, -0.3085938, 0.217041, 0.8251953, 2.549618, -51.22138, -227.7633, 20.17647
6.889892, -0.2875977, 0.1601563, 0.8486328, -2.534351, -67.79389, -244.4351, 20.36471
6.899365, -0.2648926, 0.08374023, 0.810791, -6.900764, -77.52672, -248.1832, 20.22353
6.908657, -0.2519531, 0.002197266, 0.7856445, -7.740458, -78.87786, -248.1832, 20.22353
6.917942, -0.2451172, -0.08203125, 0.706543, -3.671756, -71.70992, -248.1832, 20.27059
6.927227, -0.2258301, -0.09765625, 0.8022461, 2.717557, -63.66413, -248.1832, 20.22353
6.936424, -0.237793, -0.1066895, 0.8398438, 6.984733, -55.8397, -248.1832, 20.22353
6.945655, -0.1708984, -0.07958984, 0.8095703, 11.50382, -47.76336, -248.1832, 20.27059
6.954844, -0.1318359, -0.04296875, 0.7995605, 14.10687, -38.16031, -248.1832, 20.22353
6.964054, -0.07836914, 0.02734375, 0.7749023, 11.47328, -30.26718, -248.1832, 20.27059
6.993993, 0.02758789, 0.286377, 0.8242188, -11.19847, -29.35115, -248.1832, 20.27059
7.003965, 0.06323242, 0.2766113, 0.8830566, -15.25191, -37.18321, -248.1832, 20.36471
7.013447, 0.0715332, 0.2438965, 0.895752, -16.41221, -42.36641, -248.1832, 20.22353
7.022795, 0.1499023, 0.1320801, 0.7910156, -13.52672, -37.48855, -248.1832, 20.22353
7.032051, 0.1506348, 0.02514648, 0.6811523, -5.648855, -23.28244, -248.1832, 20.22353
7.041288, 0.1977539, -0.06347656, 0.7119141, 3.229008, -5.175572, -248.1832, 20.31765
7.050511, 0.0847168, -0.1176758, 0.6645508, 9.725191, 16.06107, -248.1832, 20.27059
7.059709, -0.004150391, -0.1540527, 0.7148438, 16.89313, 32.56489, -248.1832, 20.22353
7.068957, -0.08032227, -0.1130371, 0.7314453, 23.38168, 42.82443, -248.1832, 20.17647
7.078179, -0.1218262, -0.08422852, 0.7683105, 30.03817, 42.41221, -248.1832, 20.27059
7.108244, -0.09985352, 0.2231445, 1.022461, 24.05344, -12.63359, -248.1832, 20.17647
7.118171, -0.09082031, 0.2907715, 0.9433594, 15.90076, -28.23664, -248.1832, 20.27059
7.127581, -0.04663086, 0.3146973, 0.8725586, 10.83206, -32.61832, -248.1832, 20.22353
7.136892, -0.04614258, 0.2368164, 0.7080078, 10.19084, -25.82443, -248.1832, 20.12941
7.146143, 0.05224609, 0.2407227, 0.689209, 11.51145, -9.435115, -248.1832, 20.22353
7.155376, 0.1184082, 0.1586914, 0.7714844, 7.641222, 9.229008, -248.1832, 20.17647
7.164488, 0.1401367, 0.06811523, 0.7983398, 3.748092, 28.29771, -248.1832, 20.22353
7.173648, 0.08105469, -0.05029297, 0.8508301, 4.167939, 36.57252, -248.1832, 20.22353
7.182852, -0.02685547, -0.04760742, 1.030518, 7.633588, 34.9084, -248.1832, 20.22353
7.19209, -0.1201172, -0.09643555, 1.068604, 11.60305, 29.76336, -248.1832, 20.31765
7.222412, -0.01245117, 0.1142578, 0.8151855, 24.19847, 43.8168, -248.1832, 20.22353
7.232351, -0.07373047, 0.2570801, 0.7631836, 23.78626, 41.59542, -248.1832, 20.27059
7.241712, -0.1499023, 0.2788086, 0.8093262, 23.60306, 26.8626, -248.1832, 20.27059
7.250983, -0.244873, 0.2731934, 0.7927246, 20.77863, 8.351145, -248.1832, 20.27059
7.260184, -0.2944336, 0.2775879, 0.8071289, 18.32825, -11.25191, -231.145, 20.27059
7.269385, -0.2988281, 0.2490234, 0.7346191, 14.79389, -22.22901, -207.0076, 20.36471
7.278641, -0.2609863, 0.2341309, 0.7382813, 13.20611, -23.60306, -182.3053, 20.27059
7.287918, -0.1672363, 0.1923828, 0.7155762, 16.67176, -13.60305, -159.3435, 20.27059
7.297123, -0.06469727, 0.1120605, 0.7062988, 21.9542, 3.0, -140.626, 20.27059
7.306369, -0.02612305, 0.1276855, 0.7731934, 24.40458, 15.57252, -124.1985, 20.22353
7.336776, -0.109375, 0.09179688, 0.9272461, 10.36641, 11.06107, -56.12214, 20.17647
7.346664, -0.1149902, 0.1530762, 0.9338379, -0.4656488, 0.5801527, -35.18321, 20.22353
7.356042, -0.1027832, 0.1767578, 0.9362793, -14.73282, -12.74046, -21.51145, 20.17647
7.36532, -0.06884766, 0.1408691, 0.9135742, -26.09924, -23.85496, -11.18321, 20.22353
7.374517, -0.02783203, 0.09716797, 0.8400879, -32.03817, -27.12977, -1.671756, 20.27059
7.383764, -0.01757813, 0.07617188, 0.8183594, -34.82443, -26.00763, 4.91603, 20.31765
7.39299, 0.002441406, 0.04980469, 0.831543, -35.83206, -22.17557, 7.335878, 20.22353
7.402199, 0.03881836, 0.0324707, 0.8166504, -36.1832, -14.87023, 6.877862, 20.22353
7.411415, 0.06811523, 0.001953125, 0.8132324, -34.85496, -6.221374, 5.312977, 20.27059
7.420596, 0.05957031, -0.01879883, 0.8115234, -32.41985, 1.10687, 6.725191, 20.17647
7.4512, -0.02172852, -0.02270508, 0.8210449, -20.25954, 8.625955, 28.78626, 20.27059
7.461009, -0.04199219, -0.02587891, 0.8044434, -16.52672, 5.801527, 36.61069, 20.27059
7.470355, -0.02587891, -0.03320313, 0.8173828, -13.45038, 3.587786, 45.19847, 20.31765
7.479577, -0.004882813, -0.04394531, 0.8061523, -9.931297, 2.496183, 54.68702, 20.22353
7.488801, 0.01586914, -0.04223633, 0.7929688, -5.755725, 2.877863, 63.16794, 20.12941
7.498063, -0.00390625, -0.05834961, 0.7929688, -1.931298, 2.480916, 71.80153, 20.36471
7.507289, -0.02001953, -0.05737305, 0.8112793, 0.9541985, -0.6183206, 79.21374, 20.22353
7.516528, -0.04394531, -0.06079102, 0.8308105, 1.618321, -5.465649, 84.25955, 20.27059
7.525747, -0.09350586, -0.07177734, 0.8024902, 0.8549618, -8.961832, 89.63359, 20.27059
7.535005, -0.04589844, -0.0703125, 0.807373, 0.6946565, -11.18321, 96.90077, 20.27059
7.565826, 0.03466797, -0.04711914, 0.7685547, 1.992366, -1.541985, 123.5038, 20.27059
7.575733, 0.02539063, -0.02441406, 0.7763672, 4.900764, 6.770992, 136.1908, 20.22353
7.585078, 0.05566406, 0.02148438, 0.8190918, 5.709924, 12.28244, 151.145, 20.22353
7.594266, 0.01391602, 0.0715332, 0.8234863, 4.312977, 17.43511, 165.4733, 20.22353
7.603475, 0.004394531, 0.1403809, 0.815918, 2.19084, 21.87786, 177.2214, 20.22353
7.61277, -0.03100586, 0.1877441, 0.8149414, 0.6259542, 26.29771, 187.8626, 20.27059
7.6219, -0.07421875, 0.2546387, 0.7680664, -0.6946565, 34.0687, 197.3664, 20.27059
7.631093, -0.08618164, 0.276123, 0.739502, -1.167939, 45.62595, 207.1908, 20.17647
7.640274, -0.08789063, 0.3024902, 0.7939453, -1.824428, 57.54962, 220.9466, 20.22353
7.649452, -0.07617188, 0.2888184, 0.7817383, -3.450382, 69.87023, 236.5878, 20.31765
7.680511, -0.230957, 0.1159668, 0.8425293, -21.58015, 79.39695, 250.1298, 20.17647
7.690519, -0.1879883, 0.1220703, 0.7890625, -30.03817, 74.38168, 250.1298, 20.22353
7.699918, -0.1743164, 0.145752, 0.7890625, -39.91603, 65.09923, 250.1298, 20.22353
7.70916, -0.1750488, 0.154541, 0.8208008, -52.54199, 49.24428, 250.1298, 20.22353
7.718382, -0.2133789, 0.1865234, 0.864502, -65.59542, 29.05344, 250.1298, 20.31765
7.727566, -0.2026367, 0.1931152, 0.8430176, -75.32825, 7.08397, 250.1298, 20.12941
7.736796, -0.2067871, 0.2077637, 0.8530273, -79.29008, -14.34351, 250.1298, 20.27059
7.746034, -0.1933594, 0.2336426, 0.8415527, -80.82442, -31.92366, 250.1298, 20.17647
7.755266, -0.1862793, 0.2272949, 0.8395996, -80.34351, -45.67939, 250.1298, 20.36471
7.764452, -0.1809082, 0.1975098, 0.8520508, -79.08397, -55.28244, 250.1298, 20.27059
7.795649, -0.06176758, 0.04101563, 0.7316895, -48.58779, -54.1603, 250.1298, 20.17647
7.805707, -0.0004882813, -0.03637695, 0.722168, -37.56489, -46.96184, 250.1298, 20.27059
7.815136, 0.01806641, -0.04345703, 0.6787109, -29.32061, -36.19084, 250.1298, 20.27059
7.824365, 0.01000977, -0.08154297, 0.7102051, -25.76336, -27.67175, 250.1298, 20.27059
7.833645, -0.02612305, -0.07641602, 0.7202148, -25.19847, -19.38168, 250.1298, 20.17647
7.842882, 0.01318359, 0.002197266, 0.6918945, -24.62595, -10.58779, 250.1298, 20.27059
7.852101, 0.05102539, -0.03515625, 0.7775879, -26.09924, -3.778626, 250.1298, 20.27059
7.861333, -0.05004883, 0.1186523, 0.814209, -27.25191, 3.374046, 250.1298, 20.22353
7.870519, -0.04931641, 0.1503906, 0.9116211, -28.91603, 10.37405, 250.1298, 20.22353
7.879712, -0.2243652, 0.2072754, 0.9355469, -27.31298, 16.48092, 250.1298, 20.27059
7.910992, -0.4250488, 0.2011719, 0.5966797, 1.572519, 59.9542, 250.1298, 20.22353
7.920984, -0.3547363, 0.07421875, 0.6130371, 1.083969, 68.03817, 250.1298, 20.36471
7.930316, -0.1901855, -0.02490234, 0.6621094, -6.167939, 63.44275, 250.1298, 20.17647
7.939504, -0.1091309, -0.09814453, 0.7880859, -20.13741, 47.98473, 250.1298, 20.27059
7.948745, -0.1721191, -0.03930664, 0.8562012, -41.10687, 29.94657, 250.1298, 20.27059
7.957963, -0.2402344, 0.0168457, 0.9606934, -62.03053, 10.0687, 250.1298, 20.27059
7.967231, -0.3195801, 0.171875, 0.9819336, -76.33588, -0.3053435, 247.6259, 20.31765
7.976416, -0.3330078, 0.2236328, 1.035889, -86.08397, -5.022901, 222.0153, 20.22353
7.9856, -0.2612305, 0.2470703, 0.982666, -92.49619, -13.50382, 202.4962, 20.36471
7.994779, -0.1181641, 0.1728516, 0.949707, -95.40458, -22.0229, 189.1069, 20.17647
8.02629, -0.03588867, 0.1691895, 0.8554688, -80.61832, -33.55725, 144.6107, 20.27059
8.036226, -0.04101563, 0.07885742, 0.7351074, -70.21374, -28.74809, 133.1221, 20.22353
8.045596, -0.05297852, -0.05786133, 0.6662598, -55.41985, -21.0458, 120.4198, 20.22353
8.054831, -0.08349609, -0.1560059, 0.6738281, -42.07633, -11.52672, 109.1145, 20.22353
8.064035, -0.09570313, -0.1655273, 0.6252441, -23.12977, -2.40458, 96.58778, 20.22353
8.073335, -0.05273438, -0.08154297, 0.7021484, -4.709924, 4.129771, 81.58778, 20.22353
8.082575, 0.03833008, -0.01757813, 0.751709, 8.732824, 6.770992, 65.27481, 20.22353
8.091809, 0.08032227, -0.01464844, 0.7385254, 15.85496, 13.61832, 51.0916, 20.22353
8.100986, 0.1184082, -0.001220703, 0.965332, 15.42748, 12.35878, 37.00763, 20.27059
8.110139, 0.08349609, 0.015625, 0.8806152, 8.053435, 7.854962, 25.22901, 20.31765
8.141736, -0.07104492, -0.06201172, 0.8249512, -8.435115, -8.793893, -5.832061, 20.27059
8.151689, -0.06323242, -0.0690918, 0.8498535, -5.740458, -6.152672, -12.51145, 20.27059
8.161085, -0.03125, -0.07128906, 0.8359375, 0.2366412, -1.10687, -17.64122, 20.27059
8.17039, -0.04638672, -0.09936523, 0.828125, 9.610687, 6.847328, -21.68702, 20.17647
8.17961, -0.02099609, -0.123291, 0.7702637, 21.00763, 18.46565, -22.8397, 20.17647
8.188799, 0.02685547, -0.107666, 0.7915039, 30.22901, 29.58779, -23.38168, 20.27059
8.198052, 0.003173828, -0.1020508, 0.7683105, 38.21374, 37.07634, -25.61069, 20.17647
8.207271, -0.04785156, -0.07348633, 0.7631836, 42.58779, 39.0458, -30.80153, 20.22353
8.216425, -0.07763672, -0.03686523, 0.7741699, 41.90076, 36.40458, -37.48855, 20.27059
8.225601, -0.07739258, -0.02563477, 0.7419434, 37.38931, 32.70229, -45.05344, 20.27059
8.257385, -0.1306152, 0.009765625, 0.8046875, 11.37405, 3.748092, -73.48855, 20.31765
8.267356, -0.1665039, 0.02319336, 0.8464355, 5.267176, -8.396947, -81.24428, 20.17647
8.27672, -0.1811523, 0.02319336, 0.8430176, 3.48855, -15.40458, -88.45038, 20.17647
8.28596, -0.1723633, 0.03881836, 0.8222656, 5.473282, -16.22137, -94.34352, 20.17647
8.295196, -0.1499023, 0.01806641, 0.8132324, 10.68702, -11.70229, -103.0, 20.17647
8.304449, -0.1699219, 0.02270508, 0.7949219, 17.14504, -5.076336, -113.542, 20.17647
8.313715, -0.1950684, 0.01782227, 0.7741699, 25.21374, 0.03053435, -125.8321, 20.17647
8.322919, -0.2180176, 0.0004882813, 0.7165527, 31.25191, 3.236641, -138.3282, 20.27059
8.332109, -0.246582, 0.008544922, 0.8129883, 32.28245, 2.984733, -152.5114, 20.27059
8.341343, -0.2419434, 0.05249023, 0.8017578, 28.51908, 0.8854962, -165.687, 20.27059
8.373385, -0.1645508, 0.08618164, 0.8100586, 11.48092, -11.29008, -212.626, 20.31765
8.383359, -0.2087402, 0.08740234, 0.7915039, 8.526717, -17.52672, -229.2367, 20.31765
8.392764, -0.2905273, 0.05981445, 0.7998047, 6.167939, -26.70992, -247.4885, 20.22353
8.402026, -0.3740234, 0.06323242, 0.7546387, 6.458015, -37.54199, -248.1832, 20.36471
8.411306, -0.3833008, 0.1274414, 0.8195801, 5.030534, -48.85496, -248.1832, 20.31765
8.420516, -0.4094238, 0.1635742, 0.8608398, -1.030534, -66.54962, -248.1832, 20.27059
8.429766, -0.3823242, 0.1333008, 0.9846191, -10.34351, -82.87786, -248.1832, 20.22353
8.438975, -0.3813477, 0.1555176, 0.9418945, -20.61069, -94.43511, -248.1832, 20.22353
8.448213, -0.2888184, 0.09423828, 0.932373, -30.96183, -101.1374, -248.1832, 20.27059
8.457494, -0.2202148, 0.06567383, 0.8515625, -40.26718, -95.02291, -248.1832, 20.27059
8.489691, -0.04956055, -0.0144043, 0.7875977, -48.21374, -37.79389, -248.1832, 20.22353
8.499653, 0.07543945, 0.003662109, 0.7399902, -41.85496, -22.07634, -248.1832, 20.27059
8.509007, 0.1755371, 0.02587891, 0.7607422, -30.09924, -5.847328, -248.1832, 20.17647
8.518284, 0.2561035, 0.0847168, 0.7373047, -15.9313, 7.48855, -248.1832, 20.27059
8.527528, 0.3200684, 0.0949707, 0.6862793, 2.78626, 20.62595, -248.1832, 20.17647
8.536714, 0.3168945, 0.1787109, 0.621582, 24.0458, 36.93893, -248.1832, 20.17647
8.545894, 0.2224121, 0.2248535, 0.6821289, 42.77863, 48.80916, -248.1832, 20.31765
8.555103, 0.1606445, 0.1826172, 0.7424316, 55.01527, 61.61069, -248.1832, 20.27059
8.564272, 0.09350586, 0.1013184, 0.7263184, 65.12214, 72.29771, -248.1832, 20.27059
8.573458, 0.06347656, -0.01513672, 0.6452637, 76.56489, 81.91604, -248.1832, 20.31765
8.60573, -0.1101074, -0.2041016, 0.9335938, 74.27481, 60.38931, -248.1832, 20.27059
8.615915, -0.1621094, -0.06054688, 0.9707031, 67.51908, 28.69466, -248.1832, 20.31765
8.625253, -0.1884766, 0.01464844, 1.023682, 61.76336, -4.320611, -248.1832, 20.17647
8.6344, -0.2277832, 0.1567383, 1.096191, 52.29771, -35.64122, -248.1832, 20.27059
8.643662, -0.1923828, 0.2436523, 1.030273, 39.22137, -58.74809, -248.1832, 20.17647
8.652872, -0.1403809, 0.2358398, 0.9768066, 25.66412, -69.52672, -248.1832, 20.27059
8.662109, -0.09106445, 0.2368164, 0.8654785, 13.85496, -68.03817, -248.1832, 20.17647
8.671364, -0.006835938, 0.2705078, 0.7919922, 4.29771, -58.99237, -248.1832, 20.17647
8.680587, 0.002685547, 0.1833496, 0.8474121, 0.7480916, -52.59542, -248.1832, 20.27059
8.689765, 0.0002441406, 0.1303711, 0.8334961, 2.564885, -43.28245, -248.1832, 20.22353
8.722259, 0.1262207, 0.2509766, 0.7473145, 11.93893, 9.083969, -248.1832, 20.31765
8.732401, 0.05810547, 0.1416016, 0.8234863, 13.45038, 16.49618, -248.1832, 20.27059
8.74172, -0.04638672, 0.2241211, 0.8183594, 16.14504, 19.69466, -248.1832, 20.27059
8.750973, -0.1293945, 0.2351074, 0.7705078, 16.83206, 21.41222, -237.7939, 20.22353
8.760188, -0.1560059, 0.3190918, 0.6601563, 14.64886, 24.78626, -228.2672, 20.22353
8.769362, -0.1645508, 0.1955566, 0.6845703, 13.10687, 15.62595, -222.8091, 20.22353
8.778595, -0.06665039, 0.2294922, 0.7539063, 16.23664, 3.80916, -218.7023, 20.31765
8.787834, -0.06298828, 0.1992188, 0.7436523, 22.33588, -10.38931, -215.313, 20.27059
8.797065, -0.02319336, 0.1413574, 0.7827148, 26.77099, -19.25954, -209.9542, 20.22353
8.806273, 0.0703125, 0.09790039, 0.763916, 31.21374, -21.8626, -204.0458, 20.27059
8.838861, 0.1208496, 0.1037598, 0.9614258, 30.68702, 2.496183, -174.6031, 20.22353
8.848891, 0.06054688, 0.1210938, 0.9868164, 24.47328, 1.335878, -156.4809, 20.17647
8.858218, -0.06445313, 0.1154785, 0.9577637, 15.12214, 0.4274809, -134.0458, 20.22353
8.867468, -0.109375, 0.1269531, 0.9118652, 5.091603, -1.10687, -106.7176, 20.31765
8.876755, -0.1936035, 0.1206055, 0.8894043, -5.664122, -3.290076, -74.83206, 20.22353
8.886044, -0.2194824, 0.09326172, 0.8393555, -12.81679, -7.862596, -43.16031, 20.31765
8.895302, -0.2302246, 0.04052734, 0.8398438, -16.57252, -9.862596, -14.81679, 20.31765
8.904523, -0.1555176, 0.0480957, 0.8442383, -19.73282, -8.259542, 7.587786, 20.22353
8.913726, -0.06445313, 0.04711914, 0.8513184, -21.73282, -2.091603, 24.48092, 20.27059
8.922916, -0.01660156, 0.02246094, 0.8552246, -23.32061, 8.580153, 37.69466, 20.36471
8.955742, 0.1088867, 0.0009765625, 0.7819824, -19.58779, 39.46565, 51.8168, 20.22353
8.965685, 0.1379395, -0.01269531, 0.776123, -17.1145, 40.90076, 49.50382, 20.22353
8.974954, 0.1464844, 0.001464844, 0.7199707, -17.09924, 39.73283, 48.41985, 20.31765
8.984147, 0.1162109, 0.02246094, 0.7910156, -17.93893, 33.48855, 49.79389, 20.22353
8.993349, 0.078125, 0.05200195, 0.8737793, -20.07634, 22.32825, 56.06107, 20.27059
9.002525, -0.01904297, 0.02246094, 0.8811035, -25.51145, 10.64885, 63.76336, 20.27059
9.011777, -0.0222168, 0.006835938, 0.8344727, -30.57252, 2.435115, 71.0687, 20.27059
9.020987, -0.02319336, 0.02392578, 0.8308105, -34.67939, -3.938931, 78.32061, 20.22353
9.030184, -0.04199219, 0.009277344, 0.8212891, -36.83969, -6.152672, 85.18321, 20.12941
9.039357, -0.04199219, -0.006103516, 0.7858887, -34.9084, -2.633588, 91.46565, 20.22353
9.07237, -0.07373047, -0.01391602, 0.7163086, -20.51908, 35.96947, 123.2061, 20.22353
9.082383, -0.07275391, -0.008300781, 0.7424316, -16.49618, 44.43511, 135.8779, 20.17647
9.091706, -0.06762695, -0.005859375, 0.7922363, -13.8626, 43.9542, 148.9542, 20.17647
9.100911, -0.08081055, -0.009033203, 0.8139648, -14.96183, 36.41221, 163.1908, 20.27059
9.110153, -0.06787109, 0.01147461, 0.8186035, -18.09924, 24.16794, 177.5114, 20.22353
9.119322, -0.08105469, 0.03393555, 0.8869629, -23.53435, 7.992366, 192.4427, 20.27059
9.128599, -0.08789063, 0.05224609, 0.9443359, -31.52672, -11.21374, 208.0076, 20.27059
9.137834, -0.1228027, 0.07373047, 0.9458008, -39.68702, -24.91603, 220.916, 20.22353
9.147034, -0.1252441, 0.09838867, 0.8913574, -45.07634, -32.98473, 231.6031, 20.22353
9.156281, -0.04663086, 0.1049805, 0.862793, -47.34351, -31.12214, 240.8244, 20.31765
9.18945, 0.01391602, 0.1931152, 0.7739258, -50.29008, 36.64885, 250.1298, 20.17647
9.199595, -0.05688477, 0.2409668, 0.7858887, -44.54198, 55.40458, 250.1298, 20.31765
9.208964, -0.0534668, 0.2670898, 0.7729492, -40.23664, 68.90077, 250.1298, 20.22353
9.218194, -0.08642578, 0.2810059, 0.7907715, -39.65649, 74.93894, 250.1298, 20.22353
9.227435, -0.119873, 0.2785645, 0.7990723, -44.06107, 72.61833, 250.1298, 20.31765
9.23667, -0.1503906, 0.232666, 0.8200684, -50.83206, 63.45038, 250.1298, 20.22353
9.245901, -0.1594238, 0.1945801, 0.7907715, -58.35878, 49.75573, 250.1298, 20.22353
9.25518, -0.1430664, 0.121582, 0.8051758, -63.8397, 31.63359, 250.1298, 20.22353
9.264367, -0.217041, 0.05053711, 0.7851563, -66.25191, 12.00763, 250.1298, 20.27059
9.273562, -0.2141113, 0.0002441406, 0.7866211, -67.21374, -7.129771, 250.1298, 20.22353
9.306961, -0.06225586, 0.0715332, 0.7973633, -67.8855, -54.24428, 250.1298, 20.22353
9.317104, -0.07763672, 0.145752, 0.9050293, -65.41985, -76.46565, 250.1298, 20.36471
9.326425, -0.09448242, 0.1506348, 0.9450684, -62.21374, -97.18321, 250.1298, 20.27059
9.335664, -0.1818848, 0.06689453, 0.980957, -61.53435, -112.0382, 250.1298, 20.22353
9.344894, -0.1682129, 0.01660156, 0.8947754, -60.08397, -120.5725, 250.1298, 20.17647
9.354141, -0.1586914, -0.04833984, 0.8146973, -55.17557, -118.0916, 250.1298, 20.27059
9.363395, -0.1315918, -0.09008789, 0.6843262, -45.29008, -104.084, 250.1298, 20.27059
9.372678, -0.1274414, -0.1362305, 0.5463867, -32.25954, -76.61069, 250.1298, 20.27059
9.381932, -0.135498, -0.2175293, 0.4638672, -17.77863, -38.38168, 250.1298, 20.36471
9.391142, -0.1296387, -0.1779785, 0.390625, -6.778626, 6.396946, 250.1298, 20.36471
9.424686, -0.03662109, -0.004150391, 0.8615723, -15.55725, 63.19084, 177.5954, 20.22353
9.43474, -0.05859375, 0.1694336, 0.9443359, -39.12214, 4.366412, 162.7099, 20.31765
9.444032, -0.2094727, 0.1262207, 1.004395, -41.77099, -31.59542, 146.9313, 20.17647
9.453337, -0.328125, 0.107666, 1.01709, -50.61069, -59.77099, 134.5191, 20.27059
9.462597, -0.3393555, -0.0234375, 0.9772949, -57.62596, -73.83206, 120.8855, 20.27059
9.471842, -0.342041, 0.03466797, 1.022461, -63.49618, -80.58016, 110.0763, 20.27059
9.481049, -0.3051758, 0.04077148, 1.00293, -66.42748, -81.73283, 102.4198, 20.36471
9.490239, -0.1518555, -0.004394531, 0.9060059, -65.63359, -75.26718, 100.7786, 20.31765
9.49941, 0.002685547, -0.07910156, 0.8393555, -59.75573, -60.87786, 101.9008, 20.31765
9.508666, 0.166748, -0.1066895, 0.7839355, -53.0687, -40.90076, 104.6412, 20.22353
9.542361, 0.1645508, -0.1159668, 0.7453613, -23.61069, 42.32824, 84.14504, 20.31765
9.552453, 0.09008789, -0.03735352, 0.7319336, -11.54199, 49.64122, 67.96947, 20.27059
9.561795, -0.007568359, 0.01318359, 0.7016602, 1.366412, 48.60305, 51.48855, 20.27059
9.571026, -0.1376953, 0.04321289, 0.7910156, 11.84733, 47.0, 34.62595, 20.27059
9.580285, -0.1564941, 0.04833984, 0.8217773, 18.0687, 42.37405, 19.30534, 20.27059
9.589496, -0.1523438, 0.004150391, 0.8442383, 22.51908, 35.8626, 8.984733, 20.27059
9.598678, -0.1582031, -0.04174805, 0.8171387, 27.8397, 30.41985, 2.175573, 20.22353
9.607843, -0.137207, -0.0859375, 0.78125, 30.96946, 26.72519, -2.221374, 20.31765
9.617103, -0.1186523, -0.08618164, 0.7836914, 34.32824, 23.15267, -5.931298, 20.22353
9.626356, -0.09033203, -0.09155273, 0.762207, 36.13741, 19.0229, -9.61832, 20.22353
9.660228, -0.02124023, -0.06616211, 0.8063965, 29.45802, 1.70229, -19.18321, 20.27059
9.670234, -0.02319336, -0.06860352, 0.8225098, 28.63359, 6.648855, -20.03817, 20.31765
9.679532, -0.01831055, -0.0546875, 0.8310547, 28.46565, 14.25191, -20.32061, 20.31765
9.688753, -0.04443359, -0.05786133, 0.859375, 28.10687, 22.0687, -20.83206, 20.22353
9.698021, -0.1044922, -0.06225586, 0.8769531, 27.74046, 27.0, -21.9771, 20.36471
9.707299, -0.1601563, -0.05761719, 0.8720703, 26.92366, 28.37405, -23.47328, 20.27059
9.716526, -0.1940918, -0.04980469, 0.8461914, 24.87786, 26.45802, -23.38931, 20.41177
9.725745, -0.1677246, -0.0324707, 0.871582, 21.45038, 21.47328, -21.70229, 20.22353
9.734919, -0.1328125, -0.0234375, 0.888916, 15.45802, 16.01527, -18.23664, 20.27059
9.744112, -0.08959961, -0.008056641, 0.8835449, 9.526717, 10.77099, -13.74809, 20.36471
9.778172, -0.06176758, 0.008544922, 0.7885742, 1.129771, 2.580153, -7.900764, 20.31765
9.788226, -0.1254883, 0.01000977, 0.795166, 2.007634, 2.290076, -14.05344, 20.27059
9.797505, -0.1730957, 0.005371094, 0.8068848, 2.877863, 0.4274809, -21.38931, 20.27059
9.806748, -0.1945801, 0.005126953, 0.8261719, 4.328244, -2.832061, -28.58779, 20.17647
9.816001, -0.1975098, -0.01025391, 0.8093262, 6.572519, -4.885496, -36.68702, 20.27059
9.825237, -0.1867676, 0.001708984, 0.8291016, 9.580153, -6.229008, -46.16031, 20.27059
9.834448, -0.1740723, 0.01000977, 0.8552246, 11.51145, -7.29771, -56.91603, 20.27059
9.843659, -0.1826172, 0.01367188, 0.8630371, 12.71756, -10.83969, -69.94657, 20.31765
9.85287, -0.2019043, -0.004394531, 0.8505859, 11.25954, -14.22901, -86.67175, 20.31765
9.862117, -0.2438965, -0.02148438, 0.8217773, 6.770992, -18.52672, -106.9237, 20.17647
9.896391, -0.3813477, 0.03881836, 0.9279785, -24.19084, -72.76336, -181.687, 20.27059
9.906481, -0.3181152, 0.03808594, 0.840332, -28.69466, -81.51908, -196.4427, 20.27059
9.915834, -0.1867676, 0.03955078, 0.8273926, -28.9313, -79.70993, -207.916, 20.27059
9.925102, -0.1633301, 0.006347656, 0.7436523, -24.64885, -65.38931, -218.855, 20.36471
9.934322, -0.06518555, -0.03759766, 0.7077637, -18.74046, -44.21374, -227.0305, 20.27059
9.94357, -0.006347656, -0.07788086, 0.7316895, -11.22901, -23.22901, -235.1679, 20.17647
9.952868, 0.07202148, -0.06518555, 0.6804199, -3.625954, -3.091603, -238.1679, 20.17647
9.962119, 0.08666992, -0.07055664, 0.6689453, 3.625954, 12.37405, -237.9695, 20.31765
9.971396, 0.1281738, -0.05688477, 0.6901855, 10.54962, 22.05343, -233.2366, 20.27059
9.980605, 0.1223145, -0.01928711, 0.7307129, 15.48855, 25.26718, -223.6412, 20.22353
10.01501, 0.06616211, -0.04614258, 0.8740234, 13.71756, 11.87786, -179.5038, 20.27059
10.02499, 0.08300781, -0.02148438, 0.8730469, 14.82443, 7.320611, -168.2519, 20.27059
10.03516, 0.1022949, -0.01489258, 0.8532715, 17.38931, 4.732824, -157.4962, 20.22353
10.04512, 0.1416016, 0.05419922, 0.8410645, 18.31298, 4.251908, -145.2366, 20.27059
10.055, 0.145752, 0.08618164, 0.8513184, 17.39695, 2.748092, -131.8015, 20.31765
10.06487, 0.1501465, 0.1340332, 0.8520508, 15.0229, 0.7709923, -117.2748, 20.27059
10.07478, 0.128418, 0.1643066, 0.8144531, 12.06107, 1.824428, -101.3893, 20.31765
10.0853, 0.1206055, 0.1437988, 0.8825684, 6.503817, 0.832061, -85.37405, 20.27059
