time,acc_x,acc_y,acc_z,gyro_x,gyro_y,gyro_z,temp
0.0, -0.1000586, 0.02862732, 0.9976443, -0.1474634, -0.119, 0.1826341, 22.2
0.039953, -0.09810547, 0.0288678, 0.9937763, 0.03546345, 0.1858781, -0.09175611, 22.2
0.079938, -0.1010352, 0.03083252, 0.9969145, 0.1879025, -0.05802441, 0.03019512, 21.35294
0.11994, -0.1071387, 0.03620056, 0.9953846, -0.08648777, 0.1858781, 0.1216585, 21.4
0.159935, -0.09566406, 0.03426697, 0.9912253, -0.1169757, 0.06392682, 0.06068292, 21.30588
0.199937, -0.1046973, 0.02351807, 0.998888, 0.03546345, 0.06392682, 0.06068292, 22.2
0.239943, -0.1029883, 0.03450134, 0.9922248, -0.08648777, 0.1249025, 0.1521463, 21.4
0.279939, -0.1034766, 0.03230347, 0.9864024, 0.06595123, 0.1858781, -0.06126827, 21.35294
0.319936, -0.1032324, 0.03350769, 0.9944756, -0.05599999, 0.03343904, 0.2436098, 22.2
0.359939, -0.1049414, 0.0281488, 0.9913299, -0.08648777, -0.05802441, -0.0002926588, 21.4
0.399973, -0.1039648, 0.02741455, 0.9991245, 0.004975557, 0.03343904, 0.2131219, 22.2
0.439951, -0.09957031, 0.02693237, 0.993246, -0.05599999, -0.1494877, -0.2137073, 21.49412
0.479937, -0.1088477, 0.02936401, 0.9971089, -0.1474634, 0.002951264, -0.0002926588, 22.2
0.5199409, -0.1032324, 0.03303528, 0.991602, -0.05599999, 0.1553903, 0.2131219, 22.2
0.559939, -0.09981445, 0.03204529, 0.9925263, 0.004975557, -0.1494877, 0.03019512, 22.2
0.599937, -0.104209, 0.02862427, 0.9930248, 0.004975557, 0.06392682, 0.2131219, 21.4
0.639938, -0.100791, 0.03205261, 0.9890778, -0.1474634, 0.06392682, 0.06068292, 21.4
0.679932, -0.1034766, 0.02789368, 1.001286, 0.06595123, -0.1799756, 0.09117073, 22.2
0.719938, -0.1054297, 0.03644775, 0.9839916, -0.1169757, 0.1553903, 0.1826341, 21.4
0.759938, -0.1054297, 0.02594055, 0.9991015, -0.08648777, 0.2163659, -0.09175611, 21.30588
0.799975, -0.1015234, 0.03032959, 0.9888412, 0.2183902, 0.09441471, -0.03078049, 21.4
0.83995, -0.1051855, 0.03767334, 0.9913426, -0.2389269, 0.06392682, 0.1216585, 22.2
0.879939, -0.100791, 0.03058838, 0.996416, -0.05599999, 0.002951264, -0.0002926588, 22.2
0.919942, -0.1015234, 0.03181885, 1.005702, -0.1169757, -0.08851218, 0.2436098, 22.2
0.959939, -0.1020117, 0.03278687, 0.9910309, -0.2694147, -0.05802441, 0.1521463, 21.49412
0.99994, -0.1027441, 0.03034485, 0.9917621, 0.004975557, 0.1553903, 0.1521463, 21.49412
1.039939, -0.1034766, 0.02740784, 0.9915459, -0.1474634, -0.05802441, -0.1222439, 22.2
1.079934, -0.1049414, 0.03156189, 0.9956924, 0.004975557, -0.05802441, 0.1216585, 22.2
1.119937, -0.1046973, 0.03399902, 0.9973683, -0.1474634, 0.1249025, 0.1521463, 22.2
1.159939, -0.1049414, 0.0293634, 1.002745, -0.1169757, 0.06392682, -0.2137073, 22.2
1.199967, -0.1061621, 0.02839111, 0.9971434, 0.004975557, 0.002951264, 0.1216585, 22.2
1.239944, -0.1022559, 0.03059265, 0.9939938, -0.05599999, 0.1249025, 0.1826341, 21.49412
1.279939, -0.09957031, 0.02327026, 0.9964148, 0.004975557, 0.06392682, -0.06126827, 21.54118
1.319938, -0.1064062, 0.02840027, 0.9864126, 0.06595123, -0.02753651, -0.09175611, 21.4
1.359938, -0.104209, 0.0279126, 0.9825166, -0.02551222, -0.3324146, -0.03078049, 22.2
1.399942, -0.107627, 0.03472839, 0.9932167, 0.004975557, 0.002951264, 0.1216585, 21.4
1.439939, -0.1090918, 0.03033508, 0.9988409, 0.3403414, 0.09441471, -0.1222439, 21.4
1.479941, -0.1037207, 0.03132263, 0.9905834, 0.03546345, -0.05802441, -0.09175611, 21.4
1.519938, -0.1071387, 0.02984924, 0.9876856, 0.096439, 0.1553903, 0.03019512, 22.2
1.559938, -0.1034766, 0.03425659, 0.9981059, 0.004975557, -0.05802441, 0.06068292, 21.35294
1.59997, -0.1088477, 0.03010498, 0.9864458, 0.03546345, 0.1249025, 0.1521463, 21.49412
1.639948, -0.1056738, 0.03083191, 0.9888094, 0.03546345, -0.119, 0.03019512, 21.35294
1.679942, -0.1025, 0.03179504, 1.000088, 0.03546345, 0.1249025, 0.03019512, 21.4
1.719942, -0.1064062, 0.03132324, 0.9903252, -0.05599999, 0.09441471, 0.2131219, 21.4
1.759939, -0.104209, 0.03450378, 0.9879195, -0.1779512, -0.119, 0.1521463, 21.49412
1.799942, -0.1051855, 0.02815552, 0.9937623, -0.05599999, 0.09441471, -0.09175611, 21.58823
1.839931, -0.1012793, 0.02741943, 0.9961554, -0.02551222, 0.002951264, 0.1826341, 22.2
1.879934, -0.1083594, 0.02815491, 0.9979038, -0.1169757, 0.002951264, 0.06068292, 21.54118
1.919936, -0.1078711, 0.02888184, 0.999333, -0.05599999, 0.06392682, 0.1216585, 22.2
1.959938, -0.1073828, 0.03083862, 0.9900722, -0.05599999, 0.1249025, -0.03078049, 22.2
1.999974, -0.1051855, 0.03083313, 0.9869328, 0.03546345, 0.1858781, -0.0002926588, 22.2
2.039948, -0.1034766, 0.03009704, 0.9939606, 0.004975557, 0.1249025, 0.06068292, 21.49412
2.079937, -0.1034766, 0.02717773, 0.9973938, 0.004975557, -0.02753651, -0.0002926588, 21.4
2.119935, -0.09932617, 0.0261792, 0.989341, -0.1779512, -0.08851218, 0.09117073, 21.4
2.159939, -0.104209, 0.02912232, 0.9954458, -0.02551222, 0.2468537, 0.06068292, 21.35294
2.199934, -0.1078711, 0.02961609, 0.9920507, -0.05599999, 0.06392682, 0.1826341, 22.2
2.239939, -0.1027441, 0.03351013, 1.002047, -0.02551222, 0.06392682, 0.03019512, 21.49412
2.279939, -0.1071387, 0.02399048, 0.9976278, -0.08648777, 0.09441471, -0.06126827, 21.49412
2.319937, -0.1066504, 0.02326904, 0.9946994, 0.06595123, 0.1553903, -0.0002926588, 21.4
2.359936, -0.1015234, 0.03156616, 0.9900135, -0.02551222, -0.02753651, 0.06068292, 22.2
2.399975, -0.1037207, 0.02889221, 1.003248, 0.004975557, -0.271439, -0.1832195, 21.4
2.439949, -0.1005469, 0.03108276, 0.9942391, 0.1269268, 0.1249025, 0.09117073, 21.35294
2.479937, -0.1064062, 0.03400269, 0.9968916, 0.06595123, -0.02753651, 0.03019512, 22.2
2.519938, -0.1071387, 0.03546326, 0.9942595, -0.05599999, 0.2468537, 0.1521463, 22.2
2.559938, -0.1049414, 0.03034424, 0.9959583, 0.03546345, -0.02753651, 0.1216585, 21.4
2.59994, -0.1073828, 0.03521729, 0.9901014, -0.08648777, 0.002951264, -0.03078049, 21.4
2.639945, -0.1005469, 0.03620483, 0.9976698, 0.004975557, 0.06392682, 0.2131219, 22.2
2.679937, -0.1100684, 0.02692505, 1.001253, 0.004975557, 0.1249025, -0.03078049, 22.2
2.719941, -0.1012793, 0.03303406, 0.9900849, -0.02551222, 0.1249025, -0.03078049, 22.2
2.759935, -0.1015234, 0.03132751, 0.9898816, 0.004975557, 0.2468537, -0.1527317, 22.2
2.799971, -0.1015234, 0.03082764, 0.9966946, -0.1474634, 0.002951264, -0.09175611, 22.2
2.839951, -0.1039648, 0.02886536, 0.9961554, -0.1474634, -0.119, -0.2137073, 21.49412
2.879944, -0.1037207, 0.03132568, 0.9900836, 0.1269268, -0.1494877, -0.0002926588, 21.49412
2.919944, -0.1005469, 0.02813782, 0.9905847, -0.1169757, 0.09441471, -0.0002926588, 21.49412
2.959938, -0.1061621, 0.02961242, 0.9944565, -0.05599999, 0.03343904, -0.06126827, 22.2
2.99994, -0.1073828, 0.02691772, 0.9893194, 0.03546345, 0.002951264, 0.09117073, 21.35294
3.039934, -0.1022559, 0.02839478, 1.003252, -0.05599999, -0.02753651, -0.06126827, 22.2
3.079943, -0.1005469, 0.02497437, 0.9978808, -0.1169757, 0.002951264, -0.06126827, 21.4
3.119939, -0.100791, 0.02572388, 0.9985802, 0.096439, 0.002951264, 0.06068292, 21.49412
3.159942, -0.1105566, 0.02571594, 0.9995898, -0.02551222, 0.2163659, 0.03019512, 22.2
3.19997, -0.1044531, 0.02813904, 0.9986285, 0.03546345, 0.06392682, -0.06126827, 21.4
3.239953, -0.1039648, 0.02985108, 0.9986247, 0.096439, 0.03343904, 0.1826341, 22.2
3.27994, -0.09957031, 0.03058532, 0.9952183, -0.08648777, -0.05802441, -0.0002926588, 21.54118
3.31994, -0.1090918, 0.03571655, 0.984963, -0.05599999, 0.1858781, -0.09175611, 21.35294
3.359939, -0.09493164, 0.02668396, 0.994454, 0.004975557, -0.3324146, -0.03078049, 21.4
3.39994, -0.09859375, 0.03059021, 0.9956848, 0.1879025, 0.3078293, 0.03019512, 21.4
3.439939, -0.1083594, 0.03180298, 0.999572, -0.02551222, -0.119, -0.0002926588, 21.4
3.479938, -0.1088477, 0.02521423, 1.00201, 0.1574147, 0.1553903, -0.2137073, 22.2
3.519934, -0.1000586, 0.02741333, 0.9920088, 0.096439, -0.08851218, 0.09117073, 22.2
3.559935, -0.1054297, 0.0281543, 1.004447, 0.096439, 0.06392682, -0.03078049, 22.2
3.599975, -0.1068945, 0.03231384, 0.9934621, 0.06595123, 0.06392682, 0.2740976, 22.2
3.639954, -0.1037207, 0.03083435, 0.9991041, -0.02551222, 0.03343904, -0.0002926588, 21.4
3.67994, -0.1039648, 0.0315625, 0.9927603, -0.05599999, 0.1553903, 0.03019512, 21.4
3.719939, -0.1032324, 0.02839783, 0.9983806, 0.06595123, -0.1494877, -0.03078049, 21.35294
3.759938, -0.1064062, 0.02668091, 0.995709, 0.1269268, 0.06392682, 0.2131219, 21.54118
3.799938, -0.1022559, 0.02961975, 0.9995669, -0.1474634, 0.1858781, 0.06068292, 21.4
3.839935, -0.09883789, 0.02692749, 0.9886099, -0.05599999, 0.09441471, 0.2436098, 21.35294
3.87994, -0.107627, 0.03229492, 0.9983309, -0.1169757, 0.06392682, 0.2740976, 21.49412
3.919935, -0.1044531, 0.03449646, 0.9874185, -0.02551222, 0.09441471, 0.03019512, 21.4
3.959938, -0.09981445, 0.02864014, 0.9947083, 0.06595123, -0.02753651, -0.03078049, 21.49412
3.999973, -0.1046973, 0.02987121, 0.9913082, 0.096439, 0.03343904, 0.2131219, 21.49412
4.039945, -0.1056738, 0.02911621, 0.9846947, 0.06595123, -0.08851218, -0.09175611, 21.35294
4.079942, -0.09566406, 0.02667907, 1.004727, -0.02551222, 0.06392682, 0.03019512, 21.49412
4.11994, -0.1049414, 0.02668701, 0.9969183, -0.02551222, 0.03343904, -0.1222439, 21.4
4.159938, -0.1071387, 0.03156677, 0.9932422, -0.05599999, -0.05802441, 0.03019512, 21.49412
4.199937, -0.1010352, 0.02887085, 0.997652, -0.08648777, 0.002951264, 0.03019512, 21.4
4.239939, -0.1054297, 0.02814514, 0.9959507, 0.1269268, -0.1799756, 0.09117073, 21.54118
4.279937, -0.1134863, 0.02667114, 1.000597, 0.004975557, -0.02753651, -0.03078049, 22.2
4.319941, -0.1034766, 0.03279663, 0.991509, -0.1474634, -0.119, 0.1216585, 21.4
4.359939, -0.09688477, 0.03375854, 0.9976253, 0.06595123, -0.02753651, -0.06126827, 22.2
4.399974, -0.1064062, 0.03082031, 0.994707, -0.1169757, 0.3688049, 0.1216585, 21.49412
4.439961, -0.1039648, 0.02816528, 0.9996191, 0.03546345, 0.978561, 0.1521463, 21.4
4.479942, -0.1020117, 0.03278259, 0.9927386, -0.1779512, 0.4907561, -0.09175611, 21.4
4.519941, -0.1081152, 0.0305896, 0.9883696, 0.3098537, 4.33222, -0.1222439, 22.2
4.559934, -0.1142187, 0.03424805, 0.9976469, 0.06595123, 3.021244, 0.06068292, 22.2
4.599936, -0.1139746, 0.02376587, 0.9964262, 0.096439, 1.83222, 0.1216585, 22.2
4.639936, -0.09834961, 0.02913574, 1.000571, 0.3098537, 4.698073, 0.7619024, 22.2
4.679936, -0.112998, 0.0254657, 0.9993546, 0.3708293, 5.795634, -0.3356586, 21.4
4.719936, -0.09688477, 0.02886902, 1.003684, 0.5842439, 26.10051, 1.249707, 21.4
4.75994, -0.123252, 0.02618713, 1.00131, -1.397464, 36.07003, 9.359464, 21.4
4.799978, -0.1637793, 0.03547241, 0.9952067, -1.366976, 42.44198, 7.896049, 21.49412
4.839946, -0.1816015, 0.02836975, 0.9937304, -1.671854, 78.05173, 1.097268, 22.2
4.87994, -0.2528906, 0.02693787, 0.961419, 0.8586341, 96.77124, -1.036878, 21.49412
4.919935, -0.2958594, 0.02619385, 0.9479141, -2.159659, 97.16759, 8.780195, 21.54118
4.959942, -0.4250098, 0.04105713, 0.8828918, -0.9096586, 98.631, -0.1222439, 21.49412
4.999944, -0.4779883, 0.02960083, 0.8606015, -0.1474634, 52.83832, -2.896634, 21.49412
5.039941, -0.4933692, 0.03863647, 0.8803056, 7.108634, 62.92978, -9.939318, 21.4
5.07994, -0.496543, 0.02909546, 0.871447, 3.267171, 97.77735, -5.305171, 21.4
5.119941, -0.5412207, 0.1026532, 0.8421806, -8.653561, 108.753, 14.05459, 22.2
5.159936, -0.520957, 0.08128296, 0.7322469, -17.76942, 107.4115, 36.49361, 22.2
5.199974, -0.699668, 0.05716553, 0.7054929, -28.68405, 122.5639, 24.32898, 21.54118
5.239955, -0.7182227, 0.01075256, 0.6412098, -17.98283, 120.8871, 12.62166, 21.49412
5.279941, -0.8354102, 0.009418944, 0.547387, 0.6757073, 83.8749, -1.70761, 22.2
5.31994, -0.9001075, -0.03801575, 0.2879886, 23.96839, 132.9908, -32.43932, 22.2
5.35994, -0.84542, 0.09696411, 0.696089, 50.91961, 116.9237, -24.96981, 22.2
5.399936, -0.9152442, 0.03158081, 0.3654011, 37.32205, 103.3261, -16.09785, 22.2
5.439937, -0.9279395, 0.06833435, 0.3581041, 25.27937, 92.99075, -10.15273, 21.35294
5.479934, -0.9557715, 0.02348877, 0.3402583, 17.04766, 83.60051, -4.664927, 21.4
5.519938, -0.982627, -0.0008294685, 0.2119632, -4.568195, 59.54564, -0.3661463, 21.49412
5.559936, -0.9870215, 0.01722107, 0.1309097, -3.379171, 62.22856, -0.6710244, 22.2
5.599974, -0.9750587, 0.006227417, 0.1133953, 0.7366829, 96.46636, -1.829561, 22.2
5.639952, -1.003867, 0.02327209, -0.00691019, 1.590341, 89.21027, -1.890537, 22.2
5.679941, -1.016562, 0.03983154, -0.0316647, 0.3708293, 55.24686, -0.8234634, 21.49412
5.719938, -0.9892188, 0.01088013, -0.0538063, 1.925707, 58.78344, -1.067366, 21.49412
5.759939, -0.9691993, 0.01598145, -0.1311634, -6.824292, 105.2164, -3.384439, 21.49412
5.799938, -1.017539, -0.002536622, -0.2155017, -2.434049, 41.58832, -1.158829, 21.49412
5.83994, -0.9945899, 0.004769287, -0.204078, -6.915756, 3.570024, -1.097854, 22.2
5.879942, -0.9745704, 0.01062561, -0.1770918, -6.03161, 0.6431952, -0.6405365, 22.2
5.91994, -0.9596778, 0.007212524, -0.1776273, 0.6147317, 56.16149, -1.189317, 21.35294
5.959934, -0.97042, 0.00477417, -0.2574806, 1.864732, 50.91759, -0.7015122, 21.49412
5.999976, -0.9921485, -0.001324464, -0.302233, -0.3303902, -15.91168, 0.3960488, 22.2
6.039946, -0.9650489, 0.002825927, -0.2339901, -0.2389269, -19.02144, 0.6094635, 21.54118
6.07994, -0.9616309, 0.002327881, -0.2404532, 2.352537, 7.228561, 0.3960488, 22.2
6.119942, -0.9750587, 0.006710205, -0.2435964, -0.1779512, -6.734854, 0.3350732, 22.2
6.159942, -0.9696876, 0.002583007, -0.2429252, -0.208439, -5.576317, 0.1521463, 22.2
6.199935, -0.968711, 0.001359252, -0.2256192, -0.05599999, 1.557829, 0.06068292, 21.35294
6.23994, -0.9733497, 0.007948608, -0.2473579, 0.004975557, 1.344415, 0.1826341, 21.54118
6.279941, -0.9777442, 0.00380188, -0.2439336, -0.1474634, -3.289732, 0.2740976, 21.49412
6.319938, -0.9628516, -0.002062378, -0.230024, -0.1169757, -2.100707, 0.2436098, 21.49412
6.359942, -0.9706641, 0.0003729248, -0.2361096, 0.03546345, 2.472464, 0.09117073, 22.2
6.399981, -0.97042, 0.0003753659, -0.2431808, -0.02551222, -0.08851218, 0.1521463, 22.2
6.439939, -0.9694434, -0.003278198, -0.2383005, -0.1474634, -0.728756, 0.1521463, 21.4
6.47994, -0.9660254, 0.005498047, -0.2405564, -0.08648777, 2.472464, 0.2436098, 21.49412
6.519939, -0.97042, 0.003544311, -0.2344121, -0.08648777, -0.1494877, 0.03019512, 21.49412
6.55994, -0.9689551, -0.002293091, -0.2317686, -0.1169757, 0.6736829, 0.2131219, 22.2
6.599936, -0.9696876, -0.001088868, -0.2417032, 0.03546345, 1.374902, 0.1826341, 22.2
6.639942, -0.9713965, 0.002091674, -0.2436589, 0.03546345, -3.686073, 0.2436098, 21.54118
6.679939, -0.97042, -0.0008160406, -0.2356532, 0.06595123, -1.490951, 0.4570244, 21.54118
6.719941, -0.9726172, 0.009157104, -0.2360867, 0.1269268, 1.100512, 0.1521463, 21.49412
6.75994, -0.9696876, 0.006252441, -0.2378148, 0.096439, -4.997049, 0.1826341, 21.49412
6.799974, -0.9711524, 0.002094116, -0.2351254, 0.03546345, -3.838512, 0.4570244, 21.58823
6.839949, -0.9696876, 0.002835693, -0.2346766, 0.03546345, 4.881, 0.03019512, 21.54118
6.879939, -0.9767676, -0.0006073005, -0.2375388, -0.02551222, -2.89339, 0.2131219, 21.54118
6.919939, -0.967002, 0.001603393, -0.2300545, -0.1474634, 2.411488, -0.0002926588, 21.54118
6.959938, -0.9735938, 0.004052734, -0.2397513, -0.05599999, 1.496854, 0.03019512, 21.35294
6.999938, -0.9760352, -0.001569214, -0.2358922, 0.004975557, -4.966561, 0.09117073, 21.49412
7.039941, -0.9706641, 0.003313598, -0.2293412, -0.1779512, -3.533634, 0.4265366, 21.49412
7.079935, -0.9814063, 0.006228637, -0.2400363, 0.096439, -1.003146, 0.06068292, 21.49412
7.119939, -0.9765235, 0.008441161, -0.2460926, -0.3913659, -10.85071, 0.518, 21.58823
7.15994, -0.9904395, 0.01184326, -0.1846551, -5.360878, -33.80803, -0.2137073, 22.2
7.19997, -0.9694434, -0.002296753, -0.1972854, -1.519415, -22.00924, 0.3350732, 22.2
7.239953, -0.9823829, 0.007708129, -0.1951544, -0.08648777, -23.80803, 0.8533659, 21.54118
7.279938, -1.011924, -0.0003692629, -0.1741168, -0.5438049, -42.28364, 1.676537, 21.4
7.319933, -0.986045, 0.01110352, -0.132219, -2.312098, -36.15559, 0.6399512, 21.49412
7.359936, -0.9928809, 0.003786011, -0.1105886, 0.8586341, -31.55193, 0.7619024, 22.2
7.399936, -1.007529, 0.01135437, -0.09776381, 0.5232683, -39.14339, 0.8533659, 21.54118
7.439939, -1.003379, 0.002836304, -0.06901383, 1.864732, -45.02754, 1.219219, 21.49412
7.479938, -1.003867, 0.01768555, -0.01308452, 1.254976, -54.60071, 1.371659, 21.54118
7.519942, -1.002158, 0.01232361, 0.007432938, -0.5438049, -81.79584, 1.646049, 21.49412
7.559935, -0.9958106, 0.01132751, 0.07858891, -0.6962439, -76.70437, 1.615561, 21.58823
7.599972, -1.017051, 0.0252301, 0.1548668, -5.87917, -88.28974, 2.74361, 21.54118
7.639952, -0.9372169, 0.01867615, 0.3048459, -13.53161, -150.119, 5.457025, 21.49412
7.679942, -0.9464942, -0.01323914, 0.4196046, -5.238927, -178.0154, 4.54239, 21.54118
7.719942, -0.9301368, 0.03100159, 0.4474102, -5.543805, -140.18, 4.877756, 22.2
7.75994, -1.004355, -0.01283997, 0.5503573, -12.15966, -147.1617, 9.420439, 22.2
7.799931, -0.8068458, 0.04156067, 0.5594347, -3.836488, -129.5092, 5.304585, 21.54118
7.83994, -0.717002, 0.02816833, 0.6949604, 4.66961, -136.5824, -2.805171, 21.49412
7.879939, -0.6505957, 0.04449707, 0.7023623, 0.1574147, -108.5032, 1.432634, 21.49412
7.919938, -0.6376563, 0.03182129, 0.7619979, 5.340342, -119.4483, -5.914927, 21.4
7.95994, -0.4962988, 0.03303467, 0.8568431, -2.342585, -127.4056, 4.207025, 22.2
7.999965, -0.4687109, 0.04178467, 0.8959089, -0.4828293, -98.92999, 1.066781, 21.49412
8.039947, -0.4521094, 0.02158447, 0.886114, 1.194, -99.84462, -2.53078, 22.2
8.079944, -0.2919531, 0.01573791, 0.9290809, 2.139122, -138.1983, -1.829561, 21.54118
8.119939, -0.3014746, 0.03107056, 0.9629349, 4.791561, -111.7044, -16.12834, 21.49412
8.159944, -0.2043066, 0.02890137, 0.9881815, 0.4013171, -82.31413, 1.707024, 21.49412
8.199938, -0.1366797, 0.03612122, 1.177245, -13.83649, -80.14949, 3.963122, 21.58823
8.239941, -0.1005469, 0.03155396, 0.9964198, 0.2183902, -0.6982683, -0.03078049, 21.49412
8.279929, -0.116416, 0.02986267, 0.9952463, 0.1269268, -0.2104634, 0.09117073, 21.54118
8.319938, -0.1142187, 0.02521423, 0.9891122, -0.08648777, 0.002951264, 0.3350732, 21.54118
8.359938, -0.1169043, 0.02718079, 1.000587, -0.08648777, -1.887293, 0.2436098, 21.54118
8.399972, -0.1100684, 0.02790039, 1.003291, -0.05599999, -0.4238781, -0.1222439, 21.63529
8.439949, -0.1137305, 0.02912659, 0.989828, 0.03546345, -0.119, 0.03019512, 21.49412
8.479941, -0.105918, 0.03204101, 1.001549, 0.1574147, -0.1799756, 0.1216585, 21.54118
8.519939, -0.1078711, 0.02790954, 0.9927691, -0.08648777, -0.2409512, 0.03019512, 21.54118
8.559937, -0.1212988, 0.02667419, 0.9893946, 0.004975557, -0.1494877, 0.06068292, 21.58823
8.599939, -0.1110449, 0.005768432, 0.9968941, 0.004975557, -0.1799756, -1.219805, 22.2
8.63994, -0.1161719, 0.04596863, 0.9905693, 0.4622927, 0.3383171, -5.640537, 21.49412
8.679936, -0.1025, 0.04349854, 0.9851231, 1.834244, 1.83222, -11.37225, 21.49412
8.719938, -0.08760742, 0.02088867, 0.9964352, 3.785464, 3.478561, 2.621659, 21.49412
8.759936, -0.1015234, 0.03009033, 1.005185, 6.742781, -4.051927, 0.4265366, 21.49412
8.799976, -0.08077148, 0.02476563, 1.043443, 22.56595, 7.441976, 14.14605, 21.49412
8.839943, -0.2699805, 0.04933167, 1.032182, 45.00498, -8.076317, 5.731415, 22.2
8.879944, -0.03072265, 0.1026794, 1.001811, 26.37693, 1.191976, -2.408829, 22.2
8.91994, -0.1288672, 0.08089661, 0.9758521, 29.4562, -2.527537, -0.6100488, 21.54118
8.959933, -0.09444336, 0.1099847, 0.9947197, 36.52937, 0.521244, 4.908244, 21.4
8.999937, -0.1227637, 0.1608685, 0.9336075, 42.10864, -0.3933902, 3.841171, 21.49412
9.039935, -0.08321289, 0.1479797, 1.018725, 90.1879, -1.429976, 4.481415, 21.4
9.07994, -0.08248047, 0.2483032, 0.9598197, 127.0172, -4.112903, 2.621659, 22.2
9.119938, -0.08492188, 0.3388959, 0.9242088, 105.7367, -11.09461, -18.71981, 22.2
9.159936, -0.1071387, 0.4321631, 0.8916571, 90.21839, -13.74705, -23.4759, 21.54118
9.199975, -0.1281348, 0.5147107, 0.8458683, 84.48668, 9.789537, 24.57288, 21.63529
9.239956, -0.06587891, 0.5763641, 0.7908964, 76.77327, 30.97856, 50.67044, 21.4
9.279942, -0.08418945, 0.4981372, 0.8579288, 58.96839, 5.643195, 20.94483, 21.49412
9.319943, -0.09102539, 0.606546, 0.7856311, 69.05985, 34.66759, 48.17044, 21.4
9.35994, -0.08467773, 0.6118683, 0.7836983, 73.26717, 25.73466, 40.91434, 21.49412
9.399939, -0.06636719, 0.672027, 0.7385329, 55.61473, -1.948268, 1.402146, 21.54118
9.439936, -0.07833008, 0.6618103, 0.7443171, 110.9806, -4.814122, 3.231415, 21.54118
9.479938, -0.09322266, 0.7469959, 0.6100541, 144.4257, -15.05802, 8.719219, 21.54118
9.519935, -0.03877929, 0.8542816, 0.4972558, 92.74888, -17.3751, -9.055171, 21.54118
9.55994, -0.05660156, 0.8620356, 0.5221366, 49.88303, -24.78364, -10.06127, 21.49412
9.599974, -0.0622168, 0.8805194, 0.4797912, 80.00498, -3.442171, 11.85946, 21.49412
9.639946, -0.03023437, 0.8931867, 0.4191409, 92.13912, -1.91778, 7.652147, 22.2
9.679944, -0.05245117, 0.9321118, 0.3675806, 68.63303, -14.57022, -2.713707, 21.58823
9.719941, -0.01119141, 0.91625, 0.2640839, 63.51108, -29.20437, -6.463707, 21.54118
9.759937, -0.024375, 0.9552533, 0.2788241, 85.91961, 4.759049, 9.085073, 21.58823
9.799938, -0.002158202, 0.9825451, 0.2069166, 58.96839, 1.527341, 2.591171, 21.49412
9.839936, -0.009726562, 0.9905823, 0.1672446, 57.07815, -16.55193, 3.078976, 21.49412
9.879933, -0.1081152, 0.9747478, 0.4807677, 39.73059, 19.3932, 18.53629, 21.49412
9.919934, 0.05936523, 1.008856, 0.1029768, -5.940146, 3.35661, -1.951512, 22.2
9.959936, -0.00508789, 1.028931, -0.08276273, 15.1879, -47.43608, -5.671024, 21.49412
9.999974, -0.1000586, 0.9483734, 0.05416212, 60.4318, -24.23486, 3.383854, 22.2
10.03995, -0.07808594, 1.03125, -0.132957, 45.24888, -24.60071, 2.621659, 21.49412
10.07994, -0.006552733, 1.011192, -0.2772691, 56.13303, 21.77125, 7.865561, 21.49412
10.11994, -0.0255957, 1.061766, 0.1252518, 65.24888, 13.02124, 4.816781, 21.49412
10.15994, -0.0002050772, 1.041703, 0.01347329, 35.03546, -6.612903, 2.621659, 21.54118
10.19994, -0.009970702, 0.9961798, -0.02845135, -11.0621, -18.74705, -0.8234634, 21.49412
10.23994, -0.01045898, 0.9730462, -0.01096372, 34.85254, -8.777536, 3.810683, 21.58823
10.27994, 0.01737305, 1.001792, -0.0917151, 30.27937, -1.369, 3.109464, 21.49412
10.31994, 0.01297852, 0.9947077, -0.09794806, 10.30985, 0.06392682, 0.6094635, 21.49412
10.35994, 0.007119142, 1.006172, -0.06608288, -3.714537, 0.6431952, -0.7015122, 21.49412
10.39997, 0.01175781, 0.9957006, -0.05778975, -1.915756, 0.9175854, -0.03078049, 21.49412
10.43995, 0.01126953, 1.001563, -0.101169, -10.08649, 17.28954, -2.286878, 21.54118
10.47994, 0.01029297, 0.9952161, -0.06099288, -30.72673, 6.954171, -3.201512, 21.49412
10.51994, 0.007363282, 0.9939911, -0.0467224, -12.19015, -0.1799756, -1.036878, 21.54118
10.55994, -0.0009374991, 1.003497, -0.03063206, -7.647464, 0.09441471, -0.8234634, 22.2
10.59994, 0.005654298, 1.001315, -0.03496541, -2.921854, -0.02753651, -0.4880976, 21.58823
10.63994, -0.003867187, 0.994472, -0.03238948, -9.659658, 0.1858781, -0.732, 22.2
10.67994, -0.002402343, 0.9844721, -0.01097009, 10.30985, 0.1858781, 1.310683, 21.54118
10.71994, 0.003945313, 1.004484, -0.04794565, 20.91961, 5.85661, 1.707024, 22.2
10.75994, -0.002158202, 1.008856, -0.05718221, -3.074293, 0.826122, -0.4576097, 21.4
10.79997, 0.005898438, 0.9956897, -0.04521805, 4.39522, 1.771244, 0.4570244, 21.54118
10.83995, 0.0007714853, 1.000569, -0.05913024, -0.05599999, 0.1249025, -0.0002926588, 21.54118
10.87994, 0.007851563, 0.9966608, -0.0574047, -2.708439, 0.002951264, -0.2137073, 21.54118
10.91993, -0.003867187, 1.00179, -0.04496117, -5.177952, 0.5822196, -0.4271219, 22.2
10.95994, 0.007363282, 0.9976501, -0.03622308, -2.769415, -0.1494877, -0.2441951, 22.2
10.99994, 0.00663086, 1.000803, -0.04475525, 0.5537561, 0.03343904, -0.06126827, 21.4
11.03994, 0.0007714853, 1.003251, -0.04574328, -6.214537, 0.002951264, -0.4880976, 21.54118
11.07994, 0.005654298, 0.9895794, -0.03626259, -1.245024, 0.1858781, -0.2137073, 21.58823
11.11994, 0.002968751, 1.000078, -0.04521677, -2.952341, -0.05802441, -0.06126827, 21.49412
11.15994, 0.003701173, 1.00057, -0.03600188, -2.616976, 0.06392682, -0.274683, 21.54118
11.19998, -0.007285155, 0.9922802, -0.04063035, -2.068195, -0.1799756, 0.2131219, 21.54118
11.23996, 0.007119142, 0.9978931, -0.02382034, 1.011073, 0.1858781, 0.1216585, 21.54118
11.27994, 0.001748048, 1.007155, -0.04584397, 0.2183902, 0.6127074, -0.06126827, 22.2
11.31994, 0.01126953, 1.002515, -0.04187144, -1.85478, 0.06392682, -0.1527317, 21.49412
11.35994, 0.005410157, 1.003991, -0.0265352, -5.543805, 0.002951264, -0.3661463, 21.49412
11.39994, 0.004921876, 1.001785, -0.02463432, -3.745024, 0.03343904, -0.3051707, 21.68236
11.43994, -0.00118164, 1.004709, -0.03017946, -8.10478, 0.03343904, -0.8234634, 21.49412
11.47994, -0.003623046, 0.9978772, -0.01289518, -12.3121, 0.002951264, -1.128341, 21.63529
11.51994, 0.001015626, 0.9954577, -0.001255438, -7.373074, -0.08851218, -0.7929757, 21.35294
11.55994, -0.001669921, 1.000811, -0.009731546, -7.403561, -0.1799756, -0.7929757, 21.54118
11.59997, -0.001914062, 0.9905493, 0.01116897, -4.78161, -0.271439, -0.6100488, 21.54118
11.63996, 3.906339e-05, 1.0035, -0.005661443, -9.232829, 0.1249025, -0.7929757, 21.54118
11.67994, 0.002968751, 0.9976428, 0.01620671, -4.568195, -0.1494877, -0.3661463, 21.54118
11.71994, -0.004599608, 1.003727, 0.006977797, -2.464537, -0.08851218, -0.274683, 21.54118
11.75994, -0.006552733, 1.004707, 0.008890137, -8.37917, -0.119, -0.7624878, 21.54118
11.79994, -0.0009374991, 0.9878992, 0.03418519, 2.322049, 0.3078293, 0.4265366, 21.54118
11.83994, 0.004677735, 0.9964093, 0.0003872663, 15.52327, -0.2104634, 1.371659, 21.54118
11.87994, 0.00272461, 1.007881, -0.0029708, -7.799902, 2.289536, -0.7929757, 21.49412
11.91993, -0.008505858, 0.987912, 0.02959366, -0.9401464, 0.2163659, 0.2740976, 21.58823
11.95994, -0.003378905, 0.9954565, 0.006237731, 16.65132, -0.1799756, 1.828976, 21.49412
11.99997, -0.002402343, 1.015677, -0.001742452, 2.687902, 0.2468537, -0.06126827, 21.49412
12.03995, -0.004355468, 0.9991223, -0.001257986, -4.35478, 0.2468537, -0.3661463, 21.58823
12.07995, -0.004355468, 1.000557, -0.01154375, -6.214537, -0.3019269, -0.7015122, 21.49412
12.11994, -0.004599608, 0.9991003, 0.006268308, -8.043805, -0.3324146, -0.6710244, 21.54118
12.15994, 0.007607423, 1.008614, 0.02616805, -13.3182, -5.972659, -1.555171, 21.49412
12.19994, 0.001503907, 0.9998431, 0.04858565, -14.84259, -7.192171, -1.677122, 21.49412
12.23994, -0.004355468, 1.003242, -0.006370932, -11.00112, -4.14339, -1.402732, 21.49412
12.27994, 3.906339e-05, 0.9995954, 0.03391555, -12.89137, -0.119, -1.341756, 22.2
12.31994, -0.005576171, 0.9925201, 0.06869639, -9.995025, 0.3688049, -0.8234634, 22.2
12.35994, -0.006064452, 1.003719, 0.0511871, -6.671854, 4.301732, -0.4576097, 22.2
12.39997, -0.00899414, 1.009329, 0.05942543, -31.15356, 0.2163659, -3.049073, 21.54118
12.43995, -0.007285155, 0.9908368, 0.1021813, -36.03161, 0.1858781, -3.262488, 21.54118
12.47994, -0.01875976, 0.9922925, 0.1208782, -23.40966, -0.6677805, -2.225903, 22.2
12.51994, -0.006552733, 0.9976392, 0.1235867, -35.97064, -0.05802441, -3.414927, 21.54118
12.55994, -0.01949219, 0.9849719, 0.1602111, -40.39136, 1.710268, -3.049073, 21.54118
12.59994, -0.02486328, 0.9895924, 0.1927959, -30.08649, -1.734854, -2.896634, 21.54118
12.63994, -0.01045898, 0.9949682, 0.2000679, -37.09868, 0.3992927, -3.262488, 21.72941
12.67994, -0.02510742, 0.9776728, 0.2309094, -51.12308, 2.015146, -4.360049, 21.54118
12.71994, -0.03389648, 0.9630542, 0.2729214, -61.73283, 2.685878, -2.469805, 21.54118
12.75994, -0.01900391, 0.9589337, 0.2675146, -57.67795, 14.69808, 4.054585, 21.58823
12.79997, -0.04024414, 0.9353033, 0.3807285, -62.52552, 18.99685, 6.127756, 21.49412
12.83995, -0.03389648, 0.9143347, 0.3919233, -84.0499, 4.17978, -2.378342, 21.63529
12.87995, -0.02950195, 0.8849133, 0.4377294, -88.83649, 8.417585, -1.951512, 21.54118
12.91993, -0.03804687, 0.8395691, 0.5641397, -82.70844, 4.423683, -4.786878, 22.2
12.95994, -0.03951172, 0.8354553, 0.5356096, -84.99503, -0.2409512, -7.347854, 21.58823
12.99993, -0.04512695, 0.8074475, 0.5879648, -87.3426, 4.301732, -4.451512, 21.58823
13.03994, -0.08321289, 0.7626569, 0.6404939, -74.90356, 25.79564, 6.310683, 22.2
13.07994, -0.09102539, 0.7166229, 0.7536887, -72.34259, 22.04564, 7.438732, 21.49412
13.11994, -0.06978516, 0.6830096, 0.7302678, -94.26332, -0.2104634, -9.360049, 21.58823
13.15994, -0.0802832, 0.630166, 0.7615491, -94.29381, 8.90539, -1.768585, 21.54118
13.19997, -0.08467773, 0.5675751, 0.8218054, -81.79381, 14.6371, 10.21312, 21.54118
13.23995, -0.07076172, 0.5344458, 0.8584986, -69.3243, -0.5458293, -4.238098, 21.54118
13.27994, -0.08516602, 0.5052277, 0.8418996, -65.20844, -4.905585, -13.50639, 21.54118
13.31995, -0.09712891, 0.4767456, 0.8742772, -69.01942, 8.844415, 3.871659, 21.49412
13.35994, -0.08833984, 0.4090356, 0.9277155, -65.23893, 5.765146, -4.908829, 21.49412
13.39994, -0.09297852, 0.3752033, 0.9191514, -76.27552, -14.81412, -29.69542, 21.63529
13.43994, -0.1046973, 0.3459674, 0.9298733, -78.86697, 0.1553903, -16.52468, 21.4
13.47994, -0.09395508, 0.2838715, 0.9407232, -72.52552, 8.935879, -2.042975, 21.49412
13.51994, -0.09175781, 0.2166437, 0.9791903, -53.68405, -0.1494877, -3.597854, 21.49412
13.55994, -0.1122656, 0.1949738, 0.9691576, -41.70234, 10.49076, 8.200927, 21.58823
13.59997, -0.1103125, 0.1715698, 0.9815846, -46.33649, -11.67388, -18.26249, 21.63529
13.63995, -0.1095801, 0.1168396, 0.9886315, -41.61088, -4.387293, -10.30517, 21.58823
13.67994, -0.1046973, 0.1092334, 0.9862806, -39.93405, -3.472659, -4.817366, 22.2
13.71994, -0.1222754, 0.08197144, 0.9844837, -51.12308, -0.8202195, 1.707024, 21.58823
13.75994, -0.06709961, 0.02770813, 0.9911438, -48.95844, 19.78954, 3.475317, 21.54118
13.79994, -0.1274023, 0.04401306, 0.9951902, 0.3708293, 0.6127074, -1.402732, 21.58823
13.83994, -0.1044531, 0.04592346, 0.9920853, 1.346439, -1.125098, -9.573464, 21.58823
13.87994, -0.119834, 0.007202148, 0.9937547, 0.7366829, 0.1553903, -10.79298, 21.54118
13.91994, -0.09419922, 0.03473022, 1.000601, -0.3913659, -1.582415, -1.951512, 21.54118
13.95994, -0.1161719, 0.02718323, 1.000023, -0.4828293, -1.948268, 0.3045854, 22.2
13.99997, -0.1037207, 0.03595276, 0.9827862, 0.004975557, -0.271439, 0.1521463, 21.54118
14.03995, -0.1056738, 0.03131409, 1.001603, -0.1169757, 0.3688049, 0.09117073, 22.2
14.07994, -0.1090918, 0.03326782, 0.9974066, 0.3098537, -0.08851218, -0.3051707, 21.54118
14.11994, -0.107627, 0.03010803, 0.9981262, 0.1574147, 0.06392682, -0.4576097, 22.2
14.15994, -0.1066504, 0.03374634, 0.9974092, 0.03546345, 0.002951264, -0.3661463, 21.54118
14.19994, -0.1117773, 0.03327576, 0.9954471, 0.096439, -0.05802441, -0.4880976, 21.54118
14.23994, -0.1090918, 0.02520508, 0.9932295, 0.2793658, 0.03343904, -0.7624878, 21.54118
14.27994, -0.1151953, 0.02131531, 0.9976559, 0.06595123, 0.1249025, -0.2441951, 21.49412
14.31994, -0.1093359, 0.03448914, 0.9981199, 0.004975557, 0.03343904, -0.3661463, 21.49412
14.35994, -0.1093359, 0.03377136, 0.9922618, 0.03546345, -0.1494877, 0.1216585, 22.2
14.39998, -0.112998, 0.02354126, 0.9915498, 0.9500976, -0.3019269, -9.146635, 21.63529
14.43995, -0.1051855, 0.02766357, 0.9968456, -0.05599999, -0.119, 0.1216585, 21.49412
14.47994, -0.1105566, 0.03081726, 0.9949385, -0.1474634, -0.02753651, -0.03078049, 21.54118
14.51994, -0.1108008, 0.02815247, 0.9851626, 0.2183902, 0.03343904, 0.06068292, 21.58823
14.55994, -0.1071387, 0.03425537, 0.9861175, -0.02551222, 0.09441471, 0.06068292, 21.58823
14.59994, -0.1049414, 0.02301514, 0.9871463, 0.004975557, 0.03343904, 0.06068292, 21.49412
14.63994, -0.1073828, 0.02425232, 1.007353, -0.05599999, -0.2104634, 0.06068292, 21.49412
14.67994, -0.1090918, 0.02790283, 0.9913247, -0.02551222, -0.1494877, 0.2131219, 21.58823
14.71994, -0.1034766, 0.03327759, 0.9885526, 0.06595123, 0.1858781, -0.1222439, 22.2
14.75994, -0.1117773, 0.02888611, 0.9920507, 0.004975557, 0.09441471, 0.03019512, 22.2
14.79997, -0.1032324, 0.02644043, 0.9964364, 0.03546345, -0.02753651, 0.1521463, 21.58823
14.83995, -0.1054297, 0.03156311, 1.003758, -0.05599999, 0.1858781, 0.06068292, 21.54118
14.87994, -0.225791, -0.1189337, 0.9715429, 3.41961, 0.7651464, -23.232, 21.49412
14.91994, -0.1222754, 0.04080505, 1.006904, 1.254976, 0.2773415, -10.27468, 21.54118
14.95994, -0.07808594, 0.04522766, 0.9788609, 1.803756, 0.978561, -13.78078, 22.2
14.99994, -0.07808594, 0.01450867, 0.9937279, 0.1879025, 6.740756, 1.219219, 21.63529
15.03994, -0.2008887, 0.03206299, 0.9908875, 1.559854, 8.935879, -9.360049, 22.2
15.07994, -0.04244141, 0.03204162, 0.9965952, 0.7061951, 0.3383171, -4.024683, 22.2
15.11994, -0.1176367, 0.02546326, 0.9842498, 0.096439, -0.9116829, 0.3350732, 21.49412
15.15993, -0.1142187, 0.03473999, 0.993269, -0.6047806, -2.283634, 2.46922, 21.58823
15.19998, -0.130332, 0.03422302, 0.7476835, -0.4828293, -11.70437, 5.487513, 22.2
15.23995, -0.2150488, 0.02843018, 1.163515, -1.123073, -4.875098, 7.499708, 21.58823
15.27994, -0.1415625, 0.02205444, 1.02564, -0.5742927, -3.045829, 3.597269, 21.49412
15.31994, -0.1117773, 0.01546936, 0.9859575, -0.1169757, -0.08851218, 0.2131219, 21.58823
15.35994, -0.1081152, 0.03425415, 1.004948, -0.1779512, -0.6982683, 0.2740976, 21.58823
15.39994, -0.09297852, 0.03692444, 0.9905406, -0.208439, -1.399488, 0.4875122, 21.49412
15.43994, -0.1154395, 0.03350342, 0.9881586, -0.1169757, -0.2104634, 0.9448293, 22.2
15.47993, -0.05171875, 0.02572082, 0.9934965, -0.4523415, 3.966366, 8.109464, 21.4
15.51994, 0.3242578, 0.04130798, 1.226446, -0.6047806, -20.14949, 3.902146, 21.54118
15.55993, -0.08174805, 0.03009338, 0.9949626, -0.1474634, 2.960268, 2.987512, 21.63529
15.59997, -0.07369141, 0.03106384, 0.9863341, 0.9196098, 32.32003, 2.804585, 21.49412
15.63995, -0.09517578, 0.03426574, 1.013742, -0.3608781, 25.70417, 6.950927, 22.2
15.67994, -0.1430273, 0.02667358, 0.9891288, 0.2183902, 21.31393, 1.066781, 22.2
15.71994, -0.1313086, 0.02961853, 1.02481, 0.5232683, 53.29564, -1.738098, 21.54118
15.75994, -0.1364355, 0.03083618, 0.9920635, -3.013317, 77.74685, 12.34727, 21.58823
15.79994, -0.2494726, 0.03009827, 0.9639178, -3.318195, 81.64929, 11.40215, 22.2
15.83994, -0.309043, 0.03227966, 0.9500503, -0.05599999, 74.45417, -0.09175611, 21.54118
15.87994, -0.32125, 0.02301941, 0.9403063, 0.7671707, 70.15539, 0.7923903, 21.54118
15.91994, -0.3776465, 0.03205017, 0.9131919, -1.610878, 86.67978, 2.804585, 21.54118
15.95994, -0.4508887, 0.03351806, 0.8662678, 1.315951, 88.57002, -3.628341, 21.58823
15.99997, -0.5441504, 0.02450134, 0.8324648, 9.852537, 81.131, -16.37224, 22.2
16.03995, -0.5065527, 0.0257135, 0.857255, 7.16961, 89.14929, -10.45761, 21.49412
16.07994, -0.6073828, 0.02791199, 0.7955759, 4.456195, 91.00905, -6.860049, 22.2
16.11994, -0.6564551, 0.05368896, 0.7322285, 2.626927, 90.06392, -3.323463, 21.54118
16.15994, -0.6974707, 0.0461438, 0.7154415, -4.324293, 76.58832, 4.268, 21.58823
16.19993, -0.7130957, 0.005977783, 0.6584311, -5.482829, 74.1188, 3.231415, 21.58823
16.23993, -0.7328711, -0.00958252, 0.6988654, 6.133024, 99.3932, -5.549073, 21.49412
16.27994, -0.8078223, 0.02864197, 0.5434922, 6.254975, 98.69197, -5.335659, 21.49412
16.31994, -0.8586036, 0.005974731, 0.5267076, 4.303756, 79.69808, -3.933219, 21.54118
16.35994, -0.8505469, 0.0215686, 0.4768933, 1.011073, 98.32612, -1.829561, 21.54118
16.39997, -0.9211036, 0.00868164, 0.3856139, 2.108634, 86.28345, -2.347854, 21.58823
16.43995, -0.9372169, 0.02329529, 0.3409048, 0.4622927, 73.02124, -1.097854, 21.49412
16.47994, -0.9452735, 0.02523987, 0.3062005, -0.1169757, 71.71027, -1.097854, 21.54118
16.51994, -0.9608985, 0.01890625, 0.2532556, 0.4927805, 70.79563, -1.311268, 21.54118
16.55994, -0.9684669, 0.01524414, 0.2076146, 0.4318049, 72.25905, -1.219805, 21.54118
16.59993, -0.9928809, 0.01793884, 0.1412828, 0.3098537, 60.33832, -1.036878, 21.58823
16.63994, -0.980918, 0.01257202, 0.1118731, 0.7061951, 70.55173, -1.158829, 21.49412
16.67994, -1.00167, -0.001325074, 0.09168458, 4.974488, 71.03954, -1.646634, 21.58823
16.71995, -1.010459, 0.007204589, 0.002120465, 5.462293, 53.26515, -0.9759025, 21.58823
16.75994, -0.9919044, 0.02790954, -0.02557392, 2.992781, 54.78954, -0.9454146, 21.49412
16.79997, -0.9799415, 0.01084167, -0.04269507, 2.504976, 68.96636, -1.250293, 21.54118
16.83995, -0.9838477, -0.008168335, -0.09931222, 6.224488, 95.85661, -1.768585, 21.54118
16.87994, -1.074668, 0.009174804, -0.2086912, -0.1474634, 24.27125, -1.067366, 21.54118
16.91994, -0.9850684, 0.01205933, -0.1902907, -9.62917, -13.59461, -0.6710244, 21.49412
16.95994, -0.9684669, 0.004290771, -0.1550089, -3.348683, 10.06393, -0.9149269, 21.54118
16.99994, -0.9770118, 0.004520874, -0.172761, 0.3403414, 19.60661, -0.4271219, 21.54118
17.03994, -0.9960547, -0.003276368, -0.1924256, -0.08648777, -3.32022, 0.2740976, 21.58823
17.07994, -0.9838477, 0.002560425, -0.1707824, -0.1169757, -12.3751, 0.4265366, 21.63529
17.11993, -0.9828712, 0.006241455, -0.1673696, 0.2183902, 4.515146, -0.1832195, 21.63529
17.15994, -0.9858008, 0.007456054, -0.1797876, -0.2694147, 0.7346586, 0.06068292, 21.49412
17.19997, -0.9848243, 0.01695007, -0.1525394, -2.556, -2.862902, -0.5490732, 21.54118
17.23995, -0.9779883, 0.009175415, -0.1766533, -0.1169757, 3.631, -0.1222439, 21.49412
17.27994, -0.9923926, 0.003793945, -0.1756359, -0.05599999, -0.6677805, 0.1521463, 21.54118
17.31994, -0.9796973, 0.005263671, -0.1780837, -0.02551222, 1.40539, 0.1826341, 21.63529
17.35994, -0.9840919, 0.004777832, -0.1785618, 0.06595123, -0.4543658, 0.03019512, 21.54118
17.39994, -0.9879981, 0.00793335, -0.1715442, 0.096439, 0.9480732, -0.0002926588, 21.49412
17.43994, -0.9831153, 0.01111328, -0.1907752, -0.02551222, -1.064122, 0.1216585, 21.58823
17.47994, -0.9919044, 0.003318481, -0.1749609, -0.08648777, -1.186073, 0.03019512, 21.58823
17.51994, -0.9838477, 0.00965454, -0.1659328, 0.096439, 2.015146, -0.1222439, 21.63529
17.55994, -0.9821387, 0.009642334, -0.1811925, -0.02551222, 1.252951, 0.06068292, 21.54118
17.59997, -0.9833594, 0.005256958, -0.1716902, -0.1779512, -4.387293, -0.03078049, 21.68236
17.63995, -0.9816504, 0.004283447, -0.1637049, 0.1269268, -0.6372926, 0.09117073, 21.54118
17.67995, -0.9867774, 0.006240845, -0.1700334, 0.03546345, 2.594415, 0.03019512, 21.58823
17.71994, -0.987754, 0.00427063, -0.1702636, -0.02551222, 0.7956342, -0.03078049, 21.54118
17.75994, -0.9833594, 0.002817382, -0.1817191, -0.208439, -0.3019269, 0.06068292, 21.58823
17.79994, -0.9821387, 0.006723022, -0.1768605, 0.1269268, 2.624902, -0.0002926588, 21.58823
17.83994, -0.9816504, 0.002573242, -0.1851243, -0.05599999, 1.40539, -0.03078049, 21.54118
17.87994, -0.9894629, 0.002565918, -0.179031, -0.3608781, -6.887292, 0.3960488, 21.54118
17.91994, -0.9779883, 0.002568969, -0.1632982, 0.004975557, -13.869, 0.9753171, 21.54118
17.95993, -0.9804297, 0.008652953, -0.1506233, -0.2389269, -4.936073, 0.1216585, 21.54118
17.99997, -0.9816504, 0.007687988, -0.1572074, -0.1169757, 1.009049, -0.0002926588, 21.63529
18.03995, -0.986045, 0.009404297, -0.1542471, -0.08648777, 1.374902, 0.09117073, 21.68236
18.07994, -0.9858008, 0.004523315, -0.1610525, -0.05599999, 2.624902, -0.1527317, 21.54118
18.11994, -0.9936133, 0.0008569331, -0.1617964, 0.03546345, 0.9480732, 0.2131219, 21.54118
18.15994, -0.987754, 0.01282776, -0.1610805, 0.1574147, 1.313927, -0.274683, 21.63529
18.19994, -0.9894629, 0.005988159, -0.1634952, 0.06595123, 4.33222, -0.0002926588, 21.54118
18.23994, -0.9911719, 0.003060303, -0.1676214, -0.1474634, -4.295829, 0.2740976, 21.58823
18.27994, -0.9921485, 0.009415893, -0.1544734, -0.4218536, -3.106805, 0.09117073, 21.58823
18.31994, -0.9914161, 0.006239014, -0.1577021, 0.004975557, 0.2773415, 0.1521463, 21.58823
18.35994, -0.9872657, 0.003779907, -0.1742055, -0.2999024, -10.42388, 0.3960488, 21.54118
18.39997, -0.9850684, -0.0005981447, -0.1458271, -1.732829, -19.53973, 0.4265366, 21.58823
18.43995, -0.9840919, 0.009877319, -0.1336392, -0.4523415, -9.600708, 0.2131219, 21.63529
18.47994, -1.000449, 0.009882201, -0.141444, -0.2999024, -17.31412, 0.4265366, 21.58823
18.51994, -0.9882422, 0.01256287, -0.1263672, 0.6147317, -13.10681, 0.3045854, 21.58823
18.55994, -1.002646, 0.007932128, -0.1132168, -0.8181952, -24.99705, 0.6094635, 21.58823
18.59994, -1.010703, 0.009895629, -0.07702971, -6.001122, -61.42998, 1.127756, 21.49412
18.63994, -0.9867774, 0.004033203, -0.02480581, -4.537707, -54.29583, 1.005805, 21.54118
18.67993, -0.9931251, 0.01864685, -0.001015127, -0.2389269, -54.60071, 1.402146, 21.54118
18.71994, -0.9799415, 0.008897705, 0.04312153, -0.7572196, -60.27144, 1.371659, 21.49412
18.75993, -1.00582, -0.00352356, 0.07184474, 1.315951, -65.75925, 1.005805, 22.2
18.79996, -0.9872657, 0.03013184, 0.1353342, 6.559854, -76.82632, 0.670439, 21.54118
18.83995, -0.9899512, 0.006729736, 0.1847431, -0.6657561, -101.2775, 2.194829, 21.63529
18.87994, -0.9623633, 0.02619629, 0.2823486, -3.165756, -118.4727, 2.621659, 21.58823
18.91994, -0.9425879, 0.03230225, 0.3397325, -0.3303902, -130.9727, 1.889951, 21.58823
18.95994, -0.951377, 0.02794861, 0.4409792, -4.263317, -176.0641, 6.036293, 21.54118
18.99994, -0.8319922, 0.023255, 0.495884, 2.962293, -152.5275, -0.4271219, 21.54118
19.03994, -0.7912207, 0.02522522, 0.627174, 5.614732, -132.9239, -3.018585, 21.54118
19.07994, -0.7353125, 0.03083252, 0.6745061, 4.059854, -174.6922, -0.9759025, 21.54118
19.11994, -0.6889258, -0.02175598, 0.836456, -11.88527, -176.6434, 12.46922, 21.58823
19.15993, -0.5011817, 0.02497192, 0.8446234, -1.092585, -121.3995, 1.371659, 21.49412
19.19997, -0.4457617, 0.03131592, 0.8887447, 1.620829, -123.2897, -2.500293, 21.58823
19.23995, -0.3793555, 0.02863647, 0.9349823, 1.346439, -78.25925, -4.908829, 21.54118
19.27994, -0.3202734, 0.0313269, 0.9420254, 3.815951, -68.25925, -8.628342, 21.58823
19.31994, -0.2004004, 0.02640991, 0.9526581, -0.3303902, -104.8446, 1.585073, 21.54118
19.35994, -0.2531348, 0.0398468, 0.9854068, -0.2694147, -67.64949, 3.597269, 21.58823
19.39994, -0.1715918, 0.03277344, 0.9849682, 0.3098537, -45.33242, -2.927122, 21.49412
19.43995, -0.1044531, 0.0254834, 0.9999737, -1.946244, -14.96656, -0.274683, 21.49412
19.47994, -0.1086035, 0.03326905, 0.9905974, 0.096439, -0.8811951, -0.3051707, 21.49412
19.51994, -0.1212988, 0.03083923, 0.9922427, -0.05599999, -0.5153414, -0.3051707, 21.63529
19.55994, -0.1132422, 0.02619629, 0.9973964, 0.004975557, -0.1799756, -0.03078049, 21.63529
19.59997, -0.1159277, 0.02887818, 0.9930133, -0.1474634, -0.2409512, -0.1527317, 21.54118
19.63995, -0.1134863, 0.02765869, 0.9827798, 0.1574147, 0.7651464, -0.1527317, 21.4
19.67994, -0.1169043, 0.02911987, 0.9966576, 0.3098537, -0.1494877, -0.2137073, 21.54118
19.71994, -0.1178809, 0.03425476, 0.9934813, 0.004975557, -1.003146, 0.03019512, 21.54118
19.75994, -0.1083594, 0.02837952, 0.975977, -0.1779512, -1.369, 0.1216585, 21.54118
19.79994, -0.1237402, 0.0276654, 1.01223, -0.208439, -4.356805, 0.03019512, 21.54118
19.83994, -0.07710938, 0.02716431, 1.011662, -0.208439, -3.929976, -0.06126827, 21.54118
19.87994, -0.1586523, 0.03860901, 0.9054619, -0.3913659, -3.990951, 0.1826341, 21.54118
19.91994, -0.08785156, 0.02840576, 0.9660865, 0.3098537, -0.2409512, 0.1826341, 21.58823
19.95994, -0.1022559, 0.02936646, 0.9825497, -0.05599999, -0.2409512, 0.03019512, 21.58823
