time,acc_x,acc_y,acc_z,gyro_x,gyro_y,gyro_z,temp
0.0, -0.1061621, 0.02352295, 0.999862, -0.05599999, -0.08851218, 0.03019512, 21.07059
0.01995, -0.09249023, 0.02425476, 0.988835, -0.02551222, 0.06392682, -0.09175611, 20.97647
0.039937, -0.09444336, 0.02547668, 0.9991334, -0.02551222, 0.03343904, -0.03078049, 20.97647
0.059929, -0.09639648, 0.02450317, 0.9947121, 0.004975557, -0.1799756, 0.03019512, 20.88235
0.079934, -0.09834961, 0.0269397, 0.9946968, -0.05599999, -0.02753651, -0.0002926588, 20.97647
0.099934, -0.09859375, 0.0213208, 0.9922644, -0.2999024, -0.02753651, 0.09117073, 20.92941
0.119929, -0.09541992, 0.02376953, 0.995695, -0.1169757, 0.09441471, -0.0002926588, 21.02353
0.139935, -0.0959082, 0.03011658, 0.9959099, -0.02551222, 0.03343904, 0.1521463, 20.92941
0.159932, -0.0946875, 0.02474792, 0.9995949, -0.1169757, 0.03343904, 0.1826341, 20.92941
0.179932, -0.09786133, 0.02547729, 1.0052, -0.02551222, 0.09441471, 0.06068292, 20.78824
0.20021, -0.1000586, 0.02158936, 0.9983908, 0.1574147, -0.08851218, -0.03078049, 20.92941
0.219944, -0.09957031, 0.02278992, 0.9932257, -0.08648777, 0.03343904, 0.1216585, 20.97647
0.239939, -0.1010352, 0.02546936, 0.987145, 0.1574147, 0.1553903, 0.09117073, 20.97647
0.259931, -0.1029883, 0.02741699, 1.000096, 0.096439, 0.1553903, 0.1216585, 21.02353
0.279929, -0.09371094, 0.02547424, 0.9937866, -0.1474634, 0.06392682, 0.03019512, 20.97647
0.299928, -0.09786133, 0.01887817, 0.9905502, 0.1269268, -0.271439, 0.1826341, 20.97647
0.31993, -0.1025, 0.02303161, 1.001118, -0.08648777, 0.03343904, 0.03019512, 20.88235
0.339934, -0.09004883, 0.02449829, 0.9847177, -0.05599999, 0.06392682, 0.1521463, 20.88235
0.359937, -0.09371094, 0.02693054, 1.000809, -0.05599999, 0.1249025, 0.2131219, 20.97647
0.379934, -0.09712891, 0.02280029, 0.9908262, 0.004975557, 0.002951264, 0.09117073, 20.88235
0.399967, -0.0959082, 0.02303406, 1.001295, -0.05599999, -0.119, -0.03078049, 20.97647
0.419944, -0.0959082, 0.01986816, 0.9893283, -0.1169757, 0.3078293, -0.0002926588, 20.92941
0.439934, -0.09273438, 0.02083557, 0.9962011, -0.2389269, 0.03343904, -0.1832195, 20.92941
0.45993, -0.09688477, 0.02742615, 0.9937241, -0.02551222, 0.2163659, -0.1832195, 20.92941
0.479926, -0.09664063, 0.02352234, 0.986396, -0.1779512, -0.1799756, 0.09117073, 20.97647
0.499931, -0.09908203, 0.02841308, 0.9971624, 0.004975557, 0.002951264, -0.1222439, 20.97647
0.51993, -0.0959082, 0.01888245, 1.003965, 0.1269268, 0.1858781, 0.1521463, 20.92941
0.539931, -0.09493164, 0.02447937, 1.000867, -0.1169757, 0.09441471, -0.03078049, 20.88235
0.559931, -0.09639648, 0.02571411, 1.00208, -0.08648777, 0.1553903, 0.1826341, 20.88235
0.579934, -0.09688477, 0.01986816, 0.9954165, 0.004975557, -0.119, -0.03078049, 21.07059
0.599984, -0.0934668, 0.02622131, 0.9922478, 0.2183902, -0.02753651, 0.1826341, 20.88235
0.61994, -0.09932617, 0.02401672, 0.9988498, 0.1574147, -0.08851218, 0.09117073, 20.97647
0.639931, -0.09688477, 0.02230713, 0.9922898, 0.096439, -0.08851218, -0.09175611, 20.92941
0.659932, -0.09297852, 0.02401245, 0.9976341, 0.03546345, 0.1249025, 0.09117073, 20.92941
0.679931, -0.09639648, 0.02132324, 0.9927832, 0.1879025, -0.05802441, -0.03078049, 20.97647
0.699926, -0.09981445, 0.02353333, 0.9834918, 0.06595123, 0.1249025, -0.0002926588, 20.83529
0.71993, -0.104209, 0.02547547, 0.9922834, 0.096439, 0.1249025, 0.03019512, 21.02353
0.739925, -0.09761719, 0.02132385, 0.9961833, -0.08648777, 0.2468537, 0.1216585, 20.92941
0.759922, -0.09664063, 0.02523071, 0.987632, 0.096439, 0.1858781, 0.03019512, 21.02353
0.77993, -0.1012793, 0.02620239, 0.9896183, 0.1879025, 0.1858781, 0.06068292, 20.97647
0.80006, -0.09493164, 0.02133301, 0.9942314, -0.1474634, 0.03343904, -0.0002926588, 20.97647
0.8199471, -0.09639648, 0.02206055, 0.9935513, 0.096439, 0.03343904, 0.03019512, 20.97647
0.839931, -0.09834961, 0.02401123, 1.003745, 0.096439, -0.2409512, 0.1216585, 20.97647
0.8599339, -0.09151367, 0.02449402, 0.9922694, -0.02551222, 0.09441471, 0.1521463, 20.97647
0.879932, -0.09981445, 0.02059814, 0.9935156, 0.06595123, 0.09441471, -0.06126827, 20.97647
0.899933, -0.100791, 0.02206299, 0.999586, 0.1269268, 0.09441471, -0.0002926588, 21.02353
0.919932, -0.09541992, 0.02644775, 0.9944527, -0.02551222, 0.06392682, 0.1216585, 21.02353
0.939933, -0.08858398, 0.02767334, 0.9983883, 0.004975557, 0.1858781, 0.1216585, 20.92941
0.959926, -0.09688477, 0.02547852, 0.9981059, -0.1169757, 0.09441471, -0.1222439, 20.92941
0.9799339, -0.09761719, 0.02303711, 0.9954369, -0.08648777, 0.002951264, 0.03019512, 20.92941
1.000217, -0.09419922, 0.02767334, 0.9954216, 0.096439, 0.1858781, 0.03019512, 20.92941
1.019949, -0.09737305, 0.02766602, 0.9927463, -0.02551222, 0.09441471, 0.1216585, 20.88235
1.039935, -0.09615234, 0.02694275, 0.9937661, -0.08648777, -0.119, 0.2740976, 20.97647
1.059929, -0.09615234, 0.02279785, 0.9954127, -0.208439, 0.4602683, 0.365561, 20.92941
1.079937, -0.09493164, 0.01939148, 0.9968903, -0.02551222, 0.1553903, 0.365561, 21.02353
1.099924, -0.09932617, 0.02181274, 0.9937419, -0.2694147, 0.1553903, 0.3960488, 20.97647
1.119932, -0.09639648, 0.01717773, 0.9962267, -0.05599999, 0.1553903, -0.03078049, 20.88235
1.139932, -0.09932617, 0.02377441, 1.004957, -0.08648777, 0.1553903, -0.09175611, 21.07059
1.159928, -0.09639648, 0.02231384, 0.99761, -0.02551222, 0.09441471, 0.1216585, 20.97647
1.179929, -0.09761719, 0.02669006, 0.9947376, 0.3403414, 0.06392682, -0.0002926588, 21.02353
1.204178, -0.1015234, 0.02499451, 0.9993649, 0.1269268, 0.1249025, 0.1826341, 20.97647
1.219944, -0.1003027, 0.02694092, 0.9944859, 0.06595123, 0.09441471, 0.1216585, 21.02353
1.239936, -0.09688477, 0.02180603, 1.00402, -0.08648777, 0.002951264, 0.1216585, 20.92941
1.259931, -0.09859375, 0.02522156, 0.991537, -0.05599999, 0.002951264, 0.06068292, 21.02353
1.279932, -0.09908203, 0.02254517, 1.002033, -0.02551222, 0.1249025, -0.0002926588, 20.92941
1.299928, -0.09932617, 0.02645324, 1.001542, -0.08648777, -0.1494877, -0.03078049, 20.92941
1.319938, -0.09395508, 0.02914307, 0.9915484, -0.1169757, -0.08851218, -0.03078049, 20.88235
1.33993, -0.09566406, 0.02132874, 0.9978796, 0.03546345, -0.05802441, 0.03019512, 20.97647
1.359928, -0.09273438, 0.023526, 0.9946828, 0.096439, 0.1249025, -0.06126827, 20.97647
1.37993, -0.09615234, 0.02107422, 0.9986655, 0.004975557, 0.1858781, 0.1216585, 20.97647
1.404396, -0.09493164, 0.02839844, 0.9983437, 0.1574147, -0.08851218, 0.09117073, 20.97647
1.419941, -0.09566406, 0.02424805, 0.9989148, -0.02551222, 0.09441471, 0.2740976, 20.97647
1.439938, -0.09053711, 0.02619079, 0.9983156, -0.08648777, 0.06392682, 0.3960488, 21.07059
1.459934, -0.09493164, 0.02376282, 0.9979229, 0.1269268, 0.09441471, 0.3045854, 20.97647
1.479936, -0.09297852, 0.02523743, 0.9990875, 0.06595123, 0.09441471, 0.3045854, 20.97647
1.499929, -0.09444336, 0.02449768, 0.9968776, 0.06595123, 0.002951264, 0.2436098, 21.02353
1.51993, -0.09517578, 0.02157654, 0.9956683, 0.096439, 0.002951264, 0.3350732, 20.92941
1.539932, -0.1064062, 0.01474792, 1.001809, -0.1169757, -0.08851218, 0.2436098, 21.07059
1.559927, -0.1017676, 0.02254699, 0.9981556, 0.248878, 0.1249025, 0.2131219, 20.97647
1.579932, -0.09664063, 0.02891296, 0.9969055, 0.03546345, 0.2163659, -0.03078049, 20.97647
1.604524, -0.09883789, 0.02278442, 0.9861773, 0.03546345, 0.06392682, 0.3350732, 20.88235
1.619943, -0.09810547, 0.02547058, 0.9930172, -0.08648777, -0.02753651, 0.1521463, 20.92941
1.639938, -0.09737305, 0.02180786, 0.9898268, 0.1269268, -0.119, 0.1216585, 20.88235
1.659932, -0.0959082, 0.02327881, 0.9893461, 0.004975557, 0.2468537, 0.1216585, 20.97647
1.679929, -0.09786133, 0.02059814, 0.9981504, -0.1474634, 0.03343904, 0.06068292, 21.07059
1.699932, -0.09249023, 0.02498291, 0.9956785, -0.05599999, -0.02753651, 0.1826341, 20.92941
1.719934, -0.1015234, 0.01839905, 1.003274, 0.06595123, 0.1858781, 0.1521463, 21.02353
1.739931, -0.0946875, 0.0240094, 0.9932396, 0.1574147, -0.02753651, 0.1521463, 21.02353
1.75993, -0.1012793, 0.02204773, 1.008411, 0.096439, 0.06392682, 0.03019512, 20.92941
1.779932, -0.0959082, 0.02694702, 0.9971535, 0.03546345, 0.1858781, -0.09175611, 20.92941
1.804715, -0.1010352, 0.02669922, 0.9871527, -0.08648777, 0.002951264, -0.0002926588, 21.02353
1.819948, -0.09834961, 0.02571838, 0.9961604, -0.1779512, 0.1858781, -0.03078049, 20.97647
1.839933, -0.09737305, 0.02155273, 0.9893499, -0.1169757, 0.09441471, 0.03019512, 20.97647
1.85993, -0.09615234, 0.0261792, 0.9947185, 0.096439, 0.002951264, -0.03078049, 21.07059
1.879934, -0.09908203, 0.02766724, 0.9898408, 0.1269268, 0.09441471, 0.06068292, 20.97647
1.89993, -0.1012793, 0.02740906, 0.9988791, -0.1779512, 0.1553903, 0.2436098, 20.97647
1.919933, -0.1017676, 0.02279541, 0.994192, -0.5742927, 0.2773415, 0.2740976, 20.97647
1.939932, -0.09029297, 0.02768311, 0.9927258, 0.1574147, -0.05802441, 0.1826341, 20.97647
1.959932, -0.0946875, 0.02719787, 0.9917761, 0.03546345, 0.2773415, 0.1216585, 21.07059
1.979929, -0.100791, 0.02499512, 0.9946777, 0.004975557, 0.1249025, -0.09175611, 20.92941
2.004882, -0.1017676, 0.01961182, 0.9959583, -0.02551222, 0.03343904, 0.03019512, 20.97647
2.01994, -0.09712891, 0.02376953, 0.9956874, -0.05599999, -0.1799756, 0.09117073, 20.92941
2.039928, -0.09688477, 0.02351685, 0.9956721, -0.2389269, 0.06392682, 0.3045854, 20.92941
2.059928, -0.09712891, 0.0198584, 0.9888833, -0.6962439, 0.3383171, 0.3045854, 20.92941
2.07993, -0.09737305, 0.02035339, 0.9968839, -0.4218536, 0.1249025, -0.1832195, 20.97647
2.099929, -0.09834961, 0.02595398, 0.9888106, -0.4218536, 0.06392682, -0.1222439, 20.97647
2.119932, -0.1027441, 0.01864868, 0.9937879, -0.4828293, -0.08851218, -0.0002926588, 21.02353
2.139931, -0.09957031, 0.02132568, 0.9961375, -0.2999024, 0.1249025, -0.0002926588, 20.97647
2.159924, -0.09883789, 0.02547547, 0.9925009, -0.3303902, 0.2468537, 0.06068292, 20.97647
2.179931, -0.0934668, 0.01814148, 0.9966831, -0.3913659, 0.1249025, 0.2436098, 20.97647
2.204999, -0.09371094, 0.02522278, 0.9910233, -0.1779512, 0.03343904, 0.09117073, 21.07059
2.219943, -0.09639648, 0.02254944, 0.9849516, -0.08648777, -0.1494877, 0.09117073, 21.02353
2.239934, -0.09566406, 0.02888794, 0.9935105, 0.06595123, 0.1249025, -0.09175611, 21.07059
2.25993, -0.09297852, 0.02205139, 0.9942149, -0.02551222, 0.03343904, 0.09117073, 20.92941
2.279933, -0.09786133, 0.02084412, 0.9874402, -0.1169757, 0.1553903, 0.09117073, 21.02353
2.299927, -0.09810547, 0.0247522, 0.989828, -0.05599999, 0.002951264, -0.09175611, 21.02353
2.319932, -0.09883789, 0.02181885, 0.9908646, -0.08648777, 0.09441471, -0.06126827, 20.92941
2.339931, -0.1020117, 0.02352051, 1.002035, 0.004975557, 0.09441471, -0.03078049, 20.92941
2.35993, -0.1010352, 0.02571289, 0.994992, 0.06595123, 0.06392682, -0.09175611, 20.92941
2.379931, -0.0934668, 0.02205261, 0.9920291, -0.2389269, 0.002951264, 0.1826341, 20.92941
2.405169, -0.09566406, 0.02231018, 0.9808369, -0.08648777, 0.002951264, -0.09175611, 21.02353
2.419947, -0.09712891, 0.02888794, 0.9968826, 0.096439, 0.09441471, 0.03019512, 20.97647
2.439938, -0.08980469, 0.02669739, 0.997413, -0.05599999, 0.03343904, 0.06068292, 20.97647
2.459937, -0.09883789, 0.02547668, 0.9922707, 0.06595123, 0.03343904, -0.09175611, 20.97647
2.47993, -0.09615234, 0.02766113, 0.9939606, 0.096439, -0.1799756, 0.06068292, 21.07059
2.499933, -0.09322266, 0.026698, 0.9981212, 0.096439, -0.08851218, 0.06068292, 21.02353
2.51993, -0.09395508, 0.02181457, 0.9922644, 0.1879025, 0.002951264, 0.2131219, 21.02353
2.539928, -0.1003027, 0.02546265, 0.9962293, 0.2183902, -0.02753651, 0.06068292, 20.97647
2.559926, -0.09493164, 0.02377869, 0.9917633, 0.2183902, 0.002951264, -0.03078049, 21.02353
2.579932, -0.09712891, 0.02181457, 0.994955, -0.02551222, -0.2409512, -0.09175611, 21.02353
2.60546, -0.100791, 0.02278503, 0.994257, -0.208439, -0.08851218, -0.03078049, 20.92941
2.619947, -0.09419922, 0.02328186, 0.993232, -0.1474634, -0.02753651, 0.03019512, 21.07059
2.639936, -0.1010352, 0.02791565, 0.9996255, -0.1474634, 0.09441471, -0.1527317, 21.02353
2.659929, -0.09541992, 0.02280152, 0.9917697, 0.06595123, 0.1553903, 0.1216585, 20.97647
2.67993, -0.09371094, 0.02890259, 0.9981646, 0.096439, 0.09441471, -0.09175611, 20.97647
2.69993, -0.1010352, 0.02547913, 0.9989148, -0.08648777, -0.05802441, -0.0002926588, 20.97647
2.719932, -0.1010352, 0.02206665, 0.9929598, -0.05599999, -0.119, -0.2441951, 20.88235
2.739929, -0.09566406, 0.02621399, 0.9990863, -0.02551222, 0.002951264, -0.06126827, 20.88235
2.759931, -0.09957031, 0.02839355, 0.9939758, 0.1879025, 0.1553903, -0.03078049, 21.02353
2.779926, -0.09810547, 0.02181457, 0.991574, 0.4927805, -0.119, 0.06068292, 21.02353
2.805599, -0.09639648, 0.02010254, 0.9907753, 0.248878, 0.09441471, 0.1826341, 21.07059
2.81994, -0.08541016, 0.0252301, 0.9941971, 0.3708293, 0.1249025, -0.06126827, 21.07059
2.839931, -0.08711914, 0.0257135, 0.9954841, 0.4622927, -0.119, 0.2131219, 21.02353
2.859933, -0.09541992, 0.02059204, 1.005254, 0.3708293, 0.06392682, 0.1521463, 21.02353
2.879928, -0.09664063, 0.02496704, 0.9910525, 0.03546345, -0.02753651, -0.0002926588, 20.97647
2.899928, -0.09615234, 0.02108154, 0.9952271, 0.03546345, 0.09441471, 0.06068292, 20.97647
2.919929, -0.09395508, 0.01937866, 0.9976418, 0.2183902, 0.1249025, -0.0002926588, 20.92941
2.939932, -0.09175781, 0.02791992, 0.9993495, 0.06595123, 0.09441471, -0.09175611, 21.07059
2.959931, -0.09688477, 0.02524475, 0.9883886, 0.004975557, -0.05802441, 0.06068292, 20.97647
2.979932, -0.09249023, 0.02158081, 0.9852148, -0.6047806, 0.09441471, -0.0002926588, 21.07059
3.005782, -0.08931641, 0.02377258, 0.9876766, -0.05599999, 0.06392682, 0.03019512, 20.83529
3.019947, -0.09786133, 0.02401611, 0.9891274, -0.1169757, 0.3078293, 0.06068292, 20.92941
3.039934, -0.09908203, 0.02084106, 0.9976125, -0.1779512, 0.1249025, 0.09117073, 21.02353
3.059931, -0.09957031, 0.02035645, 0.9881178, -0.02551222, -0.08851218, -0.03078049, 20.92941
3.079931, -0.09688477, 0.02449768, 0.992323, -0.08648777, 0.2468537, 0.1216585, 21.02353
3.099928, -0.09273438, 0.01523315, 0.9924855, -0.4523415, 0.1858781, -0.03078049, 21.02353
3.119927, -0.09810547, 0.02401611, 0.9966818, -0.3303902, 0.1858781, -0.03078049, 20.92941
3.139935, -0.09224609, 0.02377136, 0.997624, -0.3913659, 0.3078293, 0.03019512, 20.92941
3.159926, -0.09834961, 0.01840576, 0.9932932, -0.4523415, 0.1858781, -0.06126827, 21.07059
3.179935, -0.1029883, 0.02059631, 0.9988383, -0.2389269, 0.1553903, 0.03019512, 20.97647
3.2059, -0.09810547, 0.01864502, 0.9846642, -0.08648777, 0.3078293, -0.3051707, 20.92941
3.219946, -0.09786133, 0.02499146, 0.9978554, 0.03546345, 0.03343904, -0.09175611, 21.02353
3.239935, -0.08931641, 0.02157654, 0.9956555, -0.208439, 0.2163659, -0.06126827, 21.02353
3.259931, -0.09639648, 0.02181885, 0.9925404, 0.1879025, 0.1249025, -0.09175611, 21.02353
3.279934, -0.09322266, 0.02278381, 0.9961821, -0.02551222, 0.06392682, -0.0002926588, 20.92941
3.299932, -0.0946875, 0.02110291, 0.9998034, -0.08648777, -0.02753651, -0.1527317, 20.92941
3.319929, -0.09761719, 0.0244989, 0.9986069, -0.02551222, 0.06392682, -0.274683, 21.02353
3.339934, -0.0934668, 0.02449463, 0.9937509, 0.06595123, 0.1553903, -0.1527317, 20.92941
3.359928, -0.09981445, 0.02329468, 0.9988854, -0.05599999, 0.2468537, -0.274683, 21.02353
3.379929, -0.09419922, 0.02547913, 0.9898115, -0.208439, 0.1858781, 0.2740976, 20.92941
3.406109, -0.09639648, 0.02546936, 0.9881471, 0.06595123, 0.2773415, -0.0002926588, 20.92941
3.420077, -0.09981445, 0.02228577, 0.9981441, -0.1474634, 0.002951264, 0.03019512, 20.97647
3.439936, -0.08907227, 0.01936951, 0.9934863, -0.1779512, 0.03343904, 0.2131219, 21.02353
3.45993, -0.09175781, 0.02304443, 0.9932753, -0.02551222, 0.2468537, -0.06126827, 20.97647
3.479928, -0.09224609, 0.02401245, 0.9969119, -0.1779512, 0.2468537, -0.1832195, 20.97647
3.499931, -0.09761719, 0.02890503, 0.9927577, -0.08648777, 0.2163659, -0.2137073, 20.97647
3.519934, -0.1029883, 0.02183411, 0.9868958, -0.02551222, 0.3078293, -0.03078049, 20.97647
3.539932, -0.09200195, 0.007901001, 1.017654, -0.02551222, 0.1249025, -0.09175611, 21.07059
3.559934, -0.1032324, 0.02206604, 1.002049, 0.03546345, 0.1249025, -0.1527317, 20.92941
3.579933, -0.0959082, 0.02742126, 0.9920815, 0.096439, 0.002951264, -0.4576097, 20.97647
3.606255, -0.1000586, 0.02742432, 0.9993533, 0.004975557, 0.002951264, -0.3051707, 21.07059
3.620238, -0.1015234, 0.01790649, 0.9993074, 0.1269268, 0.09441471, -0.2441951, 20.97647
3.639933, -0.09932617, 0.02596496, 0.9917913, 0.096439, -0.02753651, -0.03078049, 21.02353
3.659933, -0.09444336, 0.02254456, 1.000077, 0.06595123, -0.05802441, 0.1216585, 20.97647
3.679934, -0.1017676, 0.02595703, 0.9993699, -0.02551222, 0.09441471, -0.06126827, 21.07059
3.699928, -0.09908203, 0.02255981, 1.000993, 0.03546345, 0.06392682, 0.1216585, 20.97647
3.719927, -0.09224609, 0.01742737, 0.9989084, -0.1474634, 0.03343904, 0.03019512, 20.97647
3.739934, -0.09004883, 0.02010376, 0.9937241, 0.1269268, 0.2468537, 0.03019512, 20.97647
3.759933, -0.09566406, 0.02766052, 0.9949664, 0.1574147, 0.1553903, 0.03019512, 21.02353
3.77993, -0.1027441, 0.01986328, 0.9985916, 0.004975557, 0.1553903, 0.06068292, 21.02353
3.806469, -0.0959082, 0.02084473, 1.007345, -0.1169757, 0.06392682, 0.03019512, 21.02353
3.820469, -0.09615234, 0.02010559, 0.9922949, -0.08648777, 0.03343904, -0.03078049, 21.02353
3.83994, -0.09639648, 0.02132629, 0.9895724, 0.06595123, 0.03343904, -0.0002926588, 20.92941
3.859927, -0.09200195, 0.02205384, 0.9878482, 0.06595123, -0.1799756, -0.09175611, 21.07059
3.879928, -0.09981445, 0.02693787, 0.9844238, 0.06595123, -0.02753651, -0.3051707, 20.92941
3.89993, -0.09371094, 0.0193689, 0.9895967, -0.1779512, -0.05802441, -0.5185853, 21.02353
3.91993, -0.1054297, 0.02547974, 0.9896311, 0.2183902, -0.05802441, -1.067366, 20.97647
3.939932, -0.09419922, 0.02108398, 0.9949932, 0.03546345, 0.1553903, -0.6405365, 20.92941
3.959933, -0.09444336, 0.02401733, 0.9949473, 0.03546345, -0.02753651, -1.067366, 21.02353
3.979932, -0.09517578, 0.02327148, 0.9908008, -0.08648777, 0.09441471, -0.3661463, 21.02353
4.006571, -0.09834961, 0.01645996, 0.9961642, 0.06595123, 0.03343904, -0.03078049, 20.92941
4.02054, -0.09859375, 0.01742065, 0.9934532, -0.05599999, -0.05802441, -0.1527317, 20.92941
4.039943, -0.09932617, 0.02085083, 1.002719, -0.08648777, 0.03343904, -0.1527317, 20.97647
4.05993, -0.09029297, 0.02352112, 0.9991015, -0.08648777, 0.1249025, -0.0002926588, 20.92941
4.07993, -0.09004883, 0.0259729, 0.9902844, 0.096439, -0.1494877, -0.3356586, 20.97647
4.099931, -0.09224609, 0.01108154, 0.9986259, -0.1169757, -0.08851218, -0.2137073, 20.92941
4.119926, -0.1017676, 0.02742676, 0.9903545, -0.1169757, -0.2104634, -0.1832195, 20.92941
4.139934, -0.1029883, 0.02376709, 1.004217, 0.03546345, 0.1858781, -0.09175611, 21.02353
4.15993, -0.08614258, 0.02254333, 0.9908403, -0.1474634, 0.002951264, 0.1826341, 21.11765
4.179929, -0.1342383, 0.06350586, 0.9981568, 0.3708293, 0.002951264, -0.3966341, 21.02353
4.20682, -0.09737305, 0.02181946, 1.003012, -0.02551222, 0.03343904, -0.1527317, 21.02353
4.220797, -0.1017676, 0.02327698, 0.9998213, 0.1269268, -0.02753651, -0.09175611, 21.11765
4.239934, -0.09322266, 0.02546936, 1.000762, -0.05599999, -0.02753651, 0.2131219, 20.97647
4.259932, -0.09419922, 0.02182739, 0.9997945, -0.08648777, 0.2163659, 0.3045854, 20.97647
4.279927, -0.1005469, 0.02352417, 0.9918805, 0.004975557, 0.2163659, -0.0002926588, 20.97647
4.299927, -0.09786133, 0.01863831, 1.002039, 0.004975557, 0.03343904, -0.06126827, 21.02353
4.319928, -0.09371094, 0.03085449, 0.9930452, 0.2793658, 0.03343904, 0.03019512, 21.07059
4.339928, -0.08931641, 0.01863098, 1.000803, 0.096439, 0.1249025, 0.2131219, 21.07059
4.359929, -0.09126953, 0.02694458, 0.9949333, 0.004975557, 0.1553903, -0.1832195, 21.02353
4.37993, -0.1003027, 0.02059082, 0.9950086, 0.004975557, 0.1858781, -0.1527317, 20.92941
4.406952, -0.1000586, 0.01987244, 1.000608, 0.06595123, 0.06392682, -0.2137073, 20.92941
4.4209, -0.09810547, 0.01961731, 0.9956874, 0.03546345, -0.1799756, -0.1222439, 21.11765
4.439934, -0.09981445, 0.02036072, 0.9978095, 0.248878, 0.1858781, -1.616146, 20.97647
4.459929, -0.09517578, 0.02352051, 0.9886353, -0.02551222, -0.3019269, -1.402732, 20.92941
4.479934, -0.09517578, 0.02548523, 0.9934939, 0.2793658, 0.09441471, -0.274683, 20.97647
4.499926, -0.09371094, 0.02084656, 1.003297, -0.05599999, 0.06392682, -0.06126827, 20.97647
4.519934, -0.09444336, 0.02204956, 0.9935182, 0.004975557, -0.08851218, 0.2131219, 21.07059
4.539931, -0.09786133, 0.0232782, 0.9876384, 0.06595123, 0.1249025, 0.06068292, 20.97647
4.559931, -0.09615234, 0.02449097, 1.000814, 0.004975557, -0.02753651, 0.2131219, 20.97647
4.57993, -0.09566406, 0.02352783, 1.000836, 0.004975557, -0.119, -0.1222439, 20.97647
4.607124, -0.0934668, 0.02256225, 1.003449, -0.05599999, 0.06392682, -0.1527317, 20.92941
4.621141, -0.0959082, 0.01790222, 0.9910729, -0.02551222, -0.3629024, -0.1832195, 20.97647
4.639941, -0.09541992, 0.0276825, 0.9909863, -0.208439, -1.673878, -0.06126827, 21.02353
4.65993, -0.1071387, 0.01864563, 1.018485, -0.5133171, -18.47266, 0.03019512, 20.92941
4.679935, 0.1289453, 0.02912781, 0.9817159, -0.1169757, -1.003146, 0.03019512, 21.02353
4.699934, -0.07076172, 0.02327332, 0.9850854, 0.1879025, 0.4907561, -0.274683, 21.02353
4.719928, -0.2133398, 0.02081848, 1.084499, 0.06595123, 0.7651464, 0.4570244, 20.97647
4.739937, -0.09175781, 0.01938049, 0.994018, 0.1269268, 0.2163659, -0.1527317, 21.02353
4.759925, -0.09249023, 0.01814636, 0.9866249, 0.004975557, 0.06392682, 0.1521463, 20.97647
4.779926, -0.09566406, 0.02668945, 0.9915192, 0.1269268, 0.06392682, 0.06068292, 20.97647
4.807291, -0.09664063, 0.01937195, 1.004455, -0.2389269, 0.1553903, 0.3350732, 20.97647
4.82132, -0.09297852, 0.01937988, 0.9759439, 0.06595123, -0.05802441, 0.5789756, 21.07059
4.839936, -0.09517578, 0.02132324, 1.002017, -0.1169757, 0.06392682, 1.341171, 20.97647
4.859931, -0.07198242, 0.02376831, 0.9779352, -0.5742927, -1.277537, 1.859464, 20.97647
4.879934, -0.09981445, 0.02402771, 0.9877047, 0.3098537, 4.271244, 0.3960488, 21.07059
4.899932, -0.08589844, 0.02547974, 1.000113, 0.6452195, 11.25295, 1.097268, 21.02353
4.91993, -0.08663086, 0.02449951, 1.002177, -0.2999024, 5.795634, 7.835073, 20.97647
4.939933, -0.1032324, 0.02499329, 0.9956683, -1.092585, -0.728756, 9.633854, 21.02353
4.959929, -0.1169043, 0.02425537, 0.9971892, -0.9401464, -1.887293, 4.664341, 21.02353
4.979928, -0.1249609, 0.02548096, 0.9927705, 0.06595123, -0.6677805, -0.0002926588, 21.02353
5.007441, -0.104209, 0.02084473, 0.9957142, 0.2183902, 0.2468537, -0.884439, 21.02353
5.021364, -0.09175781, 0.0166864, 0.9918156, 0.1574147, -0.02753651, -2.561268, 21.02353
5.039932, -0.114707, 0.02401917, 0.9964198, 0.4318049, -0.8507072, -4.268585, 21.07059
5.059934, -0.1010352, 0.01500061, 0.9988358, 0.2793658, -0.6982683, -4.695415, 20.92941
5.079932, -0.08907227, 0.02597351, 1.002526, 0.2183902, 0.06392682, -2.95761, 20.97647
5.099934, -0.08174805, 0.02692505, 0.9932932, -0.02551222, 0.3383171, -0.6710244, 21.07059
5.119927, -0.09126953, 0.02475281, 0.9933008, 0.3403414, 4.240756, 0.6399512, 20.97647
5.139936, -0.04683594, 0.02303345, 1.000822, 0.6452195, 12.47246, 6.615561, 21.11765
5.159928, -0.1115332, 0.02109558, 0.9883517, 0.9196098, 22.16759, 7.438732, 21.02353
5.179927, -0.1256933, 0.02278992, 1.002563, -1.245024, 19.1188, 9.786292, 20.92941
5.207692, -0.1449805, 0.0264624, 0.9917595, -1.397464, 15.49076, 8.261903, 21.02353
5.221608, -0.1440039, 0.03009644, 0.9956976, -1.245024, 18.32612, 5.670439, 21.02353
5.239933, -0.1322851, 0.02545898, 0.9959353, -1.85478, 25.1249, 2.957025, 21.02353
5.25993, -0.1254492, 0.02863831, 0.9889153, -1.763317, 35.30783, 6.005805, 21.02353
5.279936, -0.1217871, 0.02303772, 1.001098, -1.519415, 45.12491, 10.48751, 20.92941
5.299932, -0.1654883, 0.02792542, 0.9845079, -1.427951, 43.02125, 10.36556, 20.97647
5.31993, -0.1757422, 0.02132385, 0.9779862, -0.2694147, 40.73466, 10.7619, 20.97647
5.33993, -0.1918554, 0.02399902, 0.9731111, 1.346439, 42.65539, 9.572878, 21.07059
5.359926, -0.197959, 0.03131165, 0.9896387, 0.9196098, 52.47247, 8.261903, 20.97647
5.379929, -0.2316504, 0.02425659, 0.971636, -0.1474634, 56.74076, 6.798488, 21.02353
5.407909, -0.288291, 0.03398926, 0.9641161, -0.2999024, 51.49686, -0.7015122, 20.97647
5.421858, -0.3141699, 0.0257135, 0.9471396, 1.102537, 52.01515, -6.097854, 20.97647
5.439934, -0.3168555, 0.03327515, 0.9632134, 2.626927, 54.54564, -10.88444, 20.97647
5.45993, -0.2951269, 0.03935242, 0.961428, -0.6352683, 58.93588, -7.225903, 20.92941
5.479931, -0.3366308, 0.01645691, 0.9482966, -7.068195, 68.26515, -2.95761, 21.02353
5.499923, -0.3847265, -0.002992554, 0.8653664, -6.915756, 84.08832, 1.188732, 21.02353
5.51993, -0.291709, 0.02860901, 0.957217, 1.072049, 76.3749, -0.3051707, 21.02353
5.539934, -0.4381934, 0.05129517, 0.8961479, -1.427951, 51.80173, -4.116146, 21.07059
5.559927, -0.4574805, 0.0257135, 0.8491842, 3.206195, 41.25295, -6.555171, 21.07059
5.579934, -0.493125, 0.02252014, 0.8887976, 7.291561, 50.49076, -13.17103, 20.97647
5.608041, -0.3485937, 0.05418518, 0.9317965, 8.175708, 55.24686, -6.28078, 21.02353
5.622036, -0.3380957, 0.037406, 0.9464646, 5.035463, 63.26515, 0.1521463, 20.97647
5.639936, -0.3905859, 0.03349243, 0.9602697, -1.946244, 91.6188, 7.347269, 20.88235
5.659927, -0.432334, 0.01670837, 0.8932565, -5.909658, 115.5212, 9.115561, 21.07059
5.679932, -0.5497656, 0.0186792, 0.8067121, -3.775512, 115.6127, 4.328976, 20.97647
5.69993, -0.6088477, 0.02566711, 0.7712466, -2.342585, 109.9725, 9.420439, 21.07059
5.719932, -0.7040625, 0.03326294, 0.8167165, -1.458439, 123.8749, 1.371659, 21.07059
5.739928, -0.6483984, 0.02105224, 0.7515495, 3.785464, 125.8871, -5.213707, 20.97647
5.759927, -0.6596289, 0.01922913, 0.6973433, 6.315951, 108.1127, -6.189317, 21.07059
5.779933, -0.6537695, 0.008961181, 0.7870373, -0.9096586, 95.09441, 0.3350732, 21.02353
5.808242, -0.7462988, -0.0003277594, 0.658767, -2.525512, 102.1066, 2.103366, 21.02353
5.822317, -0.7658301, -0.0001153564, 0.6264344, -1.153561, 114.3017, -1.250293, 21.02353
5.839931, -0.7748633, -0.01884521, 0.6372189, 5.096439, 135.8871, -4.695415, 21.02353
5.859933, -0.7516699, 0.07538635, 0.6522567, 2.444, 132.5944, -2.469805, 20.97647
5.879927, -0.7851172, 0.02253601, 0.6095633, -2.738927, 127.0151, 1.646049, 21.07059
5.899934, -0.8361426, 0.03204224, 0.515625, -7.190146, 126.7712, 3.414341, 21.02353
5.91993, -0.8954688, 0.01136475, 0.4609852, -7.708439, 104.3017, 3.200927, 21.07059
5.93993, -0.8974219, 0.0147998, 0.4342355, -5.665756, 96.74075, 1.585073, 20.92941
5.959934, -0.9254981, -0.00881958, 0.3756538, 1.803756, 81.6188, -1.646634, 21.02353
5.979924, -0.9308692, -0.00645691, 0.3765985, 3.480585, 77.22856, -2.134439, 21.11765
6.00844, -0.9462501, 0.0154364, 0.3257075, 13.41961, 76.25295, -5.701512, 20.92941
6.022388, -0.9767676, -0.02003845, 0.2680207, 19.27327, 75.6432, -7.652731, 21.02353
6.039936, -0.9399024, 0.06540405, 0.3832464, 14.33424, 77.74685, -4.603951, 21.07059
6.059932, -0.9108497, 0.09903992, 0.3186057, 0.4318049, 94.94197, -1.036878, 21.11765
6.079925, -0.9582129, 0.0164502, 0.237927, 0.1574147, 94.14929, -0.4576097, 21.07059
6.09993, -0.9757911, 0.01134827, 0.192024, 0.004975557, 83.69197, -0.3051707, 21.07059
6.11993, -0.9875098, 0.01086853, 0.1638579, -1.427951, 67.28954, -0.1222439, 21.16471
6.139931, -1.00167, 0.0003894037, 0.1374097, -1.336488, 50.67369, -0.274683, 21.02353
6.159935, -0.9709083, -0.0278479, 0.05115778, 4.303756, 73.26515, -1.738098, 20.92941
6.17993, -0.953086, 0.007880249, 0.2534379, 3.206195, 93.50905, -1.372244, 21.07059
6.208496, -1.002158, 0.08424011, 0.09444531, 1.102537, 76.80173, -0.7624878, 20.97647
6.222542, -0.9931251, 0.01331299, 0.05046997, 1.011073, 74.24076, -0.9759025, 21.07059
6.239937, -1.007529, 0.001865234, -0.01768623, 7.504975, 67.96027, -0.8234634, 21.02353
6.259935, -1.007529, 0.007453613, -0.02217889, 12.77937, 57.32003, -1.036878, 20.97647
6.279934, -1.007041, 0.03160095, -0.02585885, 10.82815, 42.83832, -0.1832195, 21.02353
6.299932, -1.005576, 0.03643494, 0.03979278, -0.3913659, 46.07003, -0.4576097, 21.02353
6.319933, -0.9723731, 0.01159912, -0.03289176, -2.403561, 63.23466, -0.9454146, 21.02353
6.339934, -0.999961, 0.01428162, -0.08554658, -1.885268, 55.76515, -0.732, 21.07059
6.359932, -1.013633, 0.007697754, -0.09651253, 0.1574147, 40.70417, -0.4576097, 21.07059
6.379928, -1.001426, 0.006708984, -0.1102973, 0.3708293, 33.57003, -0.4576097, 21.07059
6.408784, -0.9748145, 0.009636841, -0.08991945, -0.8181952, 43.32613, -1.00639, 20.97647
6.422889, -0.9799415, 0.01597778, -0.09673118, -5.391366, 49.51515, -1.463707, 21.07059
6.439941, -0.9858008, 0.008922118, -0.1664185, -3.653561, 47.04564, -1.250293, 21.02353
6.459927, -1.015342, -0.002044678, -0.1732544, -1.824293, 27.83832, -1.524683, 21.02353
6.479932, -1.002891, 0.0125708, -0.200683, 0.2183902, 1.67978, -0.03078049, 21.02353
6.499933, -1.003379, 0.01064514, -0.1725131, 0.1574147, -13.47266, 0.4875122, 21.07059
6.519927, -0.9784766, 0.01111389, -0.1501541, -0.2389269, -7.161683, 0.4265366, 21.02353
6.539932, -0.9875098, 0.005740356, -0.1532999, -0.2999024, -5.39339, 0.4570244, 20.97647
6.55993, -0.9699317, 0.01379211, -0.1320953, 0.096439, 9.240757, -0.1222439, 21.07059
6.579931, -0.9794532, 0.01136902, -0.155225, 0.2793658, 17.01515, -0.7015122, 20.97647
6.608958, -0.9904395, 0.01135498, -0.168617, 2.962293, 8.935879, 0.1826341, 21.02353
6.623021, -0.9806739, 0.01231995, -0.1687949, 1.956195, 5.643195, 0.09117073, 21.07059
6.639934, -0.9865333, 0.003779907, -0.161252, 0.3708293, 2.320024, 0.2436098, 20.97647
6.659935, -0.9875098, 0.005250854, -0.1706147, -0.5438049, 3.387098, -0.2441951, 21.07059
6.679932, -0.9831153, 0.006223755, -0.1583555, -2.556, 6.954171, -0.4576097, 21.07059
6.699924, -0.9838477, 0.001842651, -0.1916689, -1.763317, 2.868805, 0.06068292, 21.07059
6.719931, -0.9840919, 0.005744629, -0.1770625, -0.05599999, -2.405585, 0.2131219, 21.02353
6.739927, -0.9845801, -0.0001214603, -0.1890802, 0.248878, -10.05803, 0.1826341, 21.11765
6.759928, -0.9916602, 0.006721801, -0.162567, 1.194, -8.198269, 0.4265366, 21.16471
6.779931, -0.9770118, 0.007199097, -0.162787, -0.2389269, -1.521439, 0.2131219, 21.11765
6.809119, -0.9777442, 0.008674316, -0.1559383, -0.1474634, 2.015146, 0.2436098, 21.16471
6.823219, -0.980918, 0.002332764, -0.1698403, 0.6147317, 2.015146, 0.4265366, 21.02353
6.839936, -0.9855567, 0.0001318352, -0.1809905, 1.163512, -0.3933902, 0.3350732, 20.97647
6.859928, -0.9906837, 0.003793335, -0.1695706, 1.89522, -7.497049, 0.4570244, 21.07059
6.879926, -0.9850684, 0.009392089, -0.1518134, 0.9500976, -5.515342, 0.3960488, 21.07059
6.899929, -0.9816504, 0.01183472, -0.1542675, 0.3098537, 0.09441471, 0.2436098, 21.11765
6.919928, -0.9845801, 0.01036987, -0.1662024, 0.03546345, 3.112707, 0.1826341, 21.07059
6.939932, -0.9889747, 0.00770996, -0.1661361, 0.004975557, 1.771244, 0.2436098, 21.07059
6.959926, -0.9889747, 0.01234558, -0.1676494, 0.2183902, -1.399488, 0.1216585, 21.11765
6.979929, -0.9945899, 0.00722351, -0.1649817, 0.4927805, -3.59461, 0.365561, 21.02353
7.009355, -0.9865333, 0.0111145, -0.1447104, 0.03546345, 3.935878, 0.1826341, 21.07059
7.023486, -0.9772559, 0.008421021, -0.163251, 0.4013171, 7.502952, -0.0002926588, 21.07059
7.039941, -0.9919044, 0.009389648, -0.1710164, 1.254976, 6.954171, 0.1826341, 20.97647
7.059932, -0.9848243, 0.007213134, -0.1702967, 0.4622927, 5.246854, 0.1826341, 21.11765
7.079927, -0.9811622, 0.0008862298, -0.1858745, 0.06595123, 0.09441471, 0.3350732, 20.97647
7.09993, -0.9882422, 0.004020385, -0.1754275, 0.06595123, -7.801927, 0.2436098, 21.07059
7.119935, -0.9899512, 0.003795775, -0.1717743, -0.2694147, -10.63729, 0.4875122, 21.07059
7.139932, -0.9757911, 0.01013672, -0.154279, -0.05599999, -7.801927, 0.518, 21.07059
7.159929, -0.9887305, 0.009651488, -0.1535479, 0.06595123, -4.661683, 0.365561, 21.07059
7.179933, -0.9811622, 0.003547973, -0.1559383, 0.4013171, -3.960464, 0.4875122, 21.21176
7.209496, -0.9897071, 0.005755615, -0.1442705, 0.6147317, -7.161683, 0.4875122, 21.07059
7.22357, -0.9840919, 0.00720642, -0.1607943, -0.02551222, -13.47266, 0.6399512, 21.02353
7.239938, -1.001426, 0.008184813, -0.1715149, -0.1474634, -26.39949, 0.9143414, 21.02353
7.259928, -1.012168, 0.00866394, -0.1572151, -1.092585, -44.14339, 0.8838537, 21.11765
7.279931, -1.016807, 0.01428345, -0.1379815, -4.842586, -59.90559, 0.8838537, 21.11765
7.29993, -1.002158, 0.0217334, -0.1059945, -4.141366, -67.22267, 1.432634, 21.11765
7.319934, -1.005576, 0.007221069, -0.08418114, -3.074293, -72.49706, 1.341171, 20.97647
7.339929, -1.000205, 0.004284667, -0.06331759, 0.6757073, -67.34461, 1.310683, 21.11765
7.359926, -1.054893, -0.02469909, -0.03744379, 9.242781, -79.44828, 1.646049, 21.11765
7.379926, -0.9967872, 0.00866394, 0.0116445, 6.986683, -81.03364, 1.097268, 21.07059
7.409621, -0.9943458, 0.01451233, 0.04103004, 6.102537, -81.21657, 0.5789756, 21.07059
7.423712, -1.001426, 0.006448364, 0.05818944, 6.864732, -85.97266, 0.7314147, 21.02353
7.43994, -0.9882422, 0.0189032, 0.09125237, 0.8586341, -83.01536, 0.9753171, 21.11765
7.459933, -0.9889747, 0.04933655, 0.2451697, -16.51942, -88.35072, 3.109464, 20.97647
7.479929, -0.9648047, 0.001352538, 0.1578563, -18.28771, -85.3934, 4.694829, 21.11765
7.499932, -1.009971, -0.009608154, 0.1288839, -8.196244, -77.10072, 2.438732, 21.02353
7.51993, -0.9811622, 0.01745911, 0.1690932, -5.970634, -84.23486, 2.377756, 21.11765
7.539933, -0.9552833, 0.02132629, 0.2467441, -6.184049, -79.69218, 2.46922, 21.02353
7.559934, -0.9606544, 0.02158264, 0.3154184, -6.245025, -74.23486, 2.316781, 21.02353
7.579925, -0.8971778, 0.0191803, 0.2312218, -7.098682, -86.30803, 2.713122, 21.02353
7.609765, -0.9264747, 0.01449707, 0.3021859, -13.92795, -105.6373, 6.158244, 21.02353
7.623926, -0.9933692, 0.02472046, 0.3875732, -14.50722, -102.7105, 6.341171, 21.07059
7.639939, -0.9135352, 0.0215686, 0.4224791, -10.97063, -116.9178, 6.768, 21.16471
7.65993, -0.8935157, 0.01423279, 0.4891621, -10.75722, -130.8507, 7.347269, 21.07059
7.679932, -0.8622657, -0.0130542, 0.445707, -9.385268, -103.93, 4.816781, 21.16471
7.699928, -0.8852149, 0.03474304, 0.4669652, -3.745024, -80.82023, 1.981415, 21.07059
7.719931, -0.8647071, 0.02107971, 0.5073408, 0.1879025, -93.59462, -0.2441951, 21.16471
7.739928, -0.8913184, 0.01671265, 0.6429852, 9.822049, -145.5458, -5.122244, 21.16471
7.759925, -0.7792578, 0.07007568, 0.5654377, 2.71839, -181.1861, 1.310683, 21.07059
7.779934, -0.7399512, 0.0004278561, 0.6555351, 3.907415, -152.9849, -3.140537, 21.11765
7.809946, -0.7409277, 0.04031433, 0.6518686, 4.029366, -94.26536, -3.597854, 21.07059
7.824022, -0.7016211, 0.02815125, 0.7326162, 1.346439, -72.43608, -0.4880976, 21.11765
7.839937, -0.6752539, 0.02279785, 0.7248967, 0.4927805, -69.26534, -0.6405365, 21.11765
7.859932, -0.6708594, 0.01668823, 0.7244301, 1.712293, -95.24096, -2.713707, 21.11765
7.879932, -0.607627, 0.005994262, 0.8189115, 2.71839, -134.9361, -1.158829, 21.07059
7.899934, -0.5890723, 0.04045837, 0.8745647, -7.434049, -146.3995, -0.5185853, 21.07059
7.919928, -0.5490332, 0.01110474, 0.7898077, -2.708439, -132.2227, 2.255805, 21.21176
7.939926, -0.5185156, 0.01985535, 0.850382, -0.1474634, -91.52144, 0.4265366, 21.11765
7.959924, -0.4882422, 0.005223389, 0.8672061, 0.7671707, -59.81412, 1.158244, 21.07059
7.97993, -0.4821387, 0.02060486, 0.8783677, 0.4927805, -66.369, 1.188732, 21.07059
8.010098, -0.4330664, 0.02084412, 0.8919109, -3.165756, -108.7471, 7.560683, 21.02353
8.024214, -0.3808203, 0.01378357, 0.9003768, -2.921854, -112.4361, 4.877756, 21.07059
8.039937, -0.4154883, 0.03108337, 0.9145153, -2.708439, -101.9483, 3.566781, 21.11765
8.05993, -0.3822851, 0.0391156, 0.9386215, -1.366976, -82.10072, -0.274683, 21.11765
8.079933, -0.324668, 0.03011292, 0.9471537, 1.620829, -73.56412, -3.049073, 21.11765
8.099935, -0.2904883, 0.03059021, 0.9430084, 1.681805, -88.19827, -3.323463, 21.11765
8.119935, -0.2614355, 0.03179871, 0.9361559, 0.4013171, -113.8385, -1.494195, 21.21176
8.139927, -0.2023535, 0.05792969, 0.9639925, -4.690146, -141.7349, 8.475317, 21.11765
8.159927, -0.1813574, -0.01203918, 1.026174, -1.671854, -107.741, 13.74971, 21.16471
8.17993, -0.1837988, 0.02450439, 1.009245, -0.4218536, -45.24095, -0.06126827, 21.07059
8.210233, -0.1545019, 0.03130798, 0.9920406, 1.072049, -48.53364, -12.19542, 21.07059
8.224372, -0.08125977, 0.03864868, 1.016878, -2.556, -28.53364, -4.695415, 21.16471
8.239934, -0.02461914, 0.01767944, 1.000995, -0.4523415, -5.698268, -1.189317, 21.11765
8.259934, -0.1017676, 0.02425415, 0.9906663, -0.5133171, -1.125098, -0.09175611, 21.16471
8.27993, -0.1032324, 0.02449219, 0.9934914, -0.1779512, -0.8202195, 0.1216585, 21.11765
8.29993, -0.1081152, 0.02205139, 0.9981237, -0.1474634, -0.1494877, 0.1521463, 21.11765
8.31993, -0.1015234, 0.02034668, 1.000807, -0.2694147, -0.4543658, 0.2131219, 21.02353
8.339934, -0.09981445, 0.0247522, 0.9927589, -0.2999024, 0.06392682, -0.1222439, 21.07059
8.359928, -0.09151367, 0.02621338, 1.003246, -0.05599999, -0.05802441, -0.3966341, 21.11765
8.379934, -0.1037207, 0.02792297, 0.9932804, -0.02551222, 0.1553903, -0.2441951, 21.11765
8.410409, -0.1005469, 0.02695557, 0.9923026, -0.02551222, 0.06392682, 0.09117073, 21.11765
8.424557, -0.1027441, 0.02132751, 1.002993, -0.02551222, -0.2409512, 0.1826341, 21.16471
8.439931, -0.09932617, 0.02206848, 0.9991003, -0.3608781, -0.271439, 0.09117073, 20.97647
8.45993, -0.1068945, 0.01864929, 0.9932447, 0.03546345, -0.05802441, 0.1521463, 21.07059
8.47993, -0.1017676, 0.01889404, 0.9959061, -0.1779512, 0.3078293, 0.06068292, 21.07059
8.499931, -0.1056738, 0.02645081, 0.9917799, -0.02551222, -0.1494877, -0.09175611, 21.16471
8.519936, -0.1066504, 0.02085022, 0.9908033, -0.05599999, 0.002951264, -0.1222439, 21.16471
8.539932, -0.09664063, 0.02499207, 0.9956657, 0.03546345, 0.06392682, -0.0002926588, 21.07059
8.55993, -0.09981445, 0.02352234, 0.9908518, -0.02551222, -0.02753651, 0.2131219, 21.07059
8.579929, -0.09834961, 0.02230408, 0.9866912, 0.096439, -0.119, 0.09117073, 21.02353
8.610597, -0.1044531, 0.02206604, 0.9898446, -0.1779512, 0.002951264, -0.0002926588, 21.11765
8.62468, -0.1005469, 0.02253296, 1.005416, -0.1169757, 0.09441471, 0.09117073, 21.16471
8.639929, -0.1064062, 0.02206543, 0.9959417, -0.08648777, 0.09441471, -0.1832195, 21.11765
8.659932, -0.09932617, 0.02035339, 0.9995987, 0.096439, 0.2163659, 0.1216585, 21.11765
8.679932, -0.1049414, 0.02326904, 0.98426, 0.06595123, -0.08851218, -0.03078049, 21.11765
8.699929, -0.1098242, 0.02036011, 0.9776708, -0.208439, -0.3629024, -0.06126827, 21.07059
8.719932, -0.107627, 0.02302124, 0.9842216, 0.096439, 0.002951264, 0.1216585, 20.97647
8.739928, -0.1049414, 0.02523621, 1.000087, 0.1574147, 0.1553903, 0.1216585, 21.07059
8.759927, -0.1046973, 0.0315863, 1.001832, 0.03546345, -0.1494877, 0.06068292, 21.07059
8.779932, -0.1005469, 0.02692993, 0.9910768, -0.05599999, -0.05802441, 0.3045854, 21.16471
8.810758, -0.1039648, 0.02303223, 0.9940358, 0.1879025, 0.1553903, -0.06126827, 21.11765
8.824945, -0.09981445, 0.02108032, 0.9971548, -0.08648777, 0.09441471, -0.1527317, 21.16471
8.839934, -0.1039648, 0.02181091, 0.9959494, -0.08648777, 0.03343904, -0.06126827, 21.11765
8.85993, -0.09834961, 0.02086426, 0.9903303, -0.08648777, 0.09441471, -0.1222439, 21.11765
8.879931, -0.1061621, 0.01816223, 0.9895788, 0.1574147, 0.1553903, 0.1216585, 21.21176
8.89993, -0.1020117, 0.01473755, 0.9900913, 0.1574147, 0.1858781, -0.0002926588, 21.11765
8.91993, -0.1078711, 0.02426025, 0.9978758, -0.02551222, 0.2773415, 0.2740976, 21.21176
8.939929, -0.1039648, 0.02597046, 0.9893194, -0.02551222, 0.1858781, -0.09175611, 21.02353
8.959936, -0.107627, 0.02793823, 0.9986094, 0.06595123, 0.03343904, -0.0002926588, 21.02353
8.979928, -0.1010352, 0.02865356, 0.9949562, 0.1269268, -0.02753651, 0.1521463, 21.11765
9.010874, -0.1032324, 0.01864929, 0.9895686, -0.08648777, -0.08851218, 0.06068292, 21.21176
9.025078, -0.1017676, 0.02548096, 0.9957027, -0.08648777, -0.1494877, 0.06068292, 21.11765
9.039935, -0.1017676, 0.02183411, 0.9964352, -0.08648777, -0.02753651, 0.1216585, 21.21176
9.059927, -0.1005469, 0.02132874, 0.9849541, 0.03546345, 0.1249025, 0.03019512, 21.07059
9.079931, -0.1032324, 0.02034851, 0.9933313, -0.02551222, 0.1249025, -0.0002926588, 21.11765
9.099927, -0.0959082, 0.02524109, 0.9895444, -0.1474634, 0.002951264, -0.03078049, 21.02353
9.119927, -0.1029883, 0.01865173, 0.9927857, 0.06595123, 0.09441471, 0.1216585, 21.11765
9.139927, -0.1000586, 0.02376038, 0.9934723, 0.06595123, 0.03343904, -0.03078049, 21.11765
9.159932, -0.1005469, 0.02253479, 0.993981, -0.02551222, -0.02753651, -0.09175611, 21.16471
9.179932, -0.1090918, 0.02279053, 0.9954521, 0.03546345, -0.05802441, 0.06068292, 21.11765
9.211039, -0.1017676, 0.02059937, 1.001308, 0.03546345, 0.002951264, -0.03078049, 21.16471
9.225254, -0.09932617, 0.02036255, 0.9971777, 0.03546345, 0.09441471, 0.1216585, 21.11765
9.239936, -0.09737305, 0.02010315, 0.9976571, -0.1169757, 0.03343904, -0.06126827, 21.07059
9.259934, -0.09688477, 0.02449219, 0.9881254, -0.2694147, 0.03343904, 0.03019512, 21.07059
9.279934, -0.09444336, 0.02304504, 1.002007, 0.03546345, 0.09441471, -0.0002926588, 21.11765
9.299931, -0.09834961, 0.02157104, 0.9957014, 0.004975557, 0.03343904, -0.03078049, 21.25882
9.31993, -0.1034766, 0.02401855, 0.9895622, -0.1474634, 0.09441471, 0.1826341, 21.16471
9.339936, -0.1037207, 0.02693298, 0.9898522, 0.03546345, -0.02753651, 0.03019512, 21.11765
9.359931, -0.1061621, 0.02132874, 0.9876104, -0.08648777, -0.05802441, 0.06068292, 21.11765
9.379927, -0.1093359, 0.02230469, 0.9969259, 0.004975557, 0.1553903, 0.3045854, 21.21176
9.411268, -0.09712891, 0.02108093, 0.9888464, -0.1474634, 0.1858781, -0.0002926588, 21.07059
9.425512, -0.104209, 0.02425537, 0.9922108, -0.05599999, 0.09441471, -0.03078049, 21.21176
9.439939, -0.1071387, 0.02084045, 0.9797966, -0.05599999, -0.05802441, -0.06126827, 21.16471
9.459935, -0.1093359, 0.007213134, 0.9891619, 0.3403414, -0.05802441, -5.853951, 21.16471
9.479933, -0.09786133, 0.04302001, 0.9920419, 1.011073, 0.002951264, -7.134439, 21.16471
9.499929, -0.06514648, 0.03788025, 0.9958755, 0.4927805, -0.05802441, -0.9454146, 21.21176
9.51993, -0.09981445, 0.02084473, 0.9984087, 0.248878, 0.002951264, -0.4576097, 21.11765
9.539934, -0.105918, 0.02425232, 0.9996115, 0.5232683, 0.1553903, -2.042975, 21.21176
9.55993, -0.1234961, 0.03569641, 0.9920687, 0.8891219, 0.1553903, -6.829561, 21.07059
9.579934, -0.09737305, 0.01257568, 0.9967112, 1.89522, 0.03343904, -18.35395, 21.16471
9.611397, -0.03536133, 0.05132019, 0.9856343, 4.883024, 1.527341, -9.603951, 21.21176
9.625544, -0.09126953, 0.0271698, 1.041153, 9.39522, -2.801927, 3.414341, 21.02353
9.639936, -0.09224609, 0.01402344, 1.028822, 18.60254, -3.990951, 12.80459, 21.21176
9.65993, -0.1105566, 0.0436969, 0.9820679, 36.34644, 0.978561, 10.60946, 21.21176
9.679935, -0.116416, 0.08242859, 0.9947146, 29.63912, 4.17978, 14.08507, 21.11765
9.699924, -0.1274023, 0.0397937, 1.017797, 37.10864, 0.1249025, 16.18873, 21.21176
9.719924, -0.09297852, 0.04542297, 0.9990519, 51.37693, -1.704366, 12.74361, 21.11765
9.73993, -0.06734375, 0.05421204, 1.019324, 67.77936, -2.405585, 5.24361, 21.02353
9.759933, -0.0790625, 0.0741333, 0.9983118, 94.21229, 1.344415, 5.24361, 21.11765
9.779934, -0.07027344, 0.1659113, 1.007602, 115.8891, 2.960268, 10.30459, 21.07059
9.811605, -0.06148438, 0.2203021, 0.9425119, 136.7733, 7.350513, 32.16434, 21.07059
9.825784, -0.1142187, 0.2414911, 0.9363152, 130.0355, 12.01515, 28.04849, 21.07059
9.839934, -0.1576758, 0.2560663, 0.9407818, 121.0111, 11.46637, 21.82898, 21.16471
9.859932, -0.1701269, 0.2786792, 0.9196218, 109.1208, 14.75905, 8.627756, 21.16471
9.879928, -0.08492188, 0.3452173, 0.9106269, 97.80986, 20.61271, -3.567366, 21.16471
9.899924, -0.07930664, 0.3797888, 0.9332076, 97.71839, 12.381, -1.463707, 21.16471
9.919929, -0.1400976, 0.4129596, 0.9107837, 106.8647, 1.344415, 2.682634, 21.07059
9.939934, -0.135459, 0.4460004, 0.8887682, 114.7611, 6.67978, 6.341171, 21.16471
9.959928, -0.1256933, 0.4811236, 0.8657591, 110.7062, 19.94198, 7.103366, 21.16471
9.979935, -0.1332617, 0.4818231, 0.8725101, 113.0233, 12.99076, 14.42044, 21.11765
10.01176, -0.1169043, 0.5436755, 0.7925926, 131.3769, 8.844415, 16.95093, 21.02353
10.0261, -0.09932617, 0.6140826, 0.7523062, 125.1574, 1.557829, 12.34727, 21.16471
10.04, -0.1242285, 0.6496283, 0.7266783, 105.4928, -0.4543658, 17.80458, 21.16471
10.05993, -0.1276465, 0.6861651, 0.690636, 81.80376, 7.533439, 32.46922, 21.16471
10.07994, -0.1191016, 0.6795624, 0.7010741, 78.17571, 7.411488, 32.46922, 21.25882
10.09993, -0.1366797, 0.6813049, 0.7091218, 82.93181, -5.82022, 31.768, 21.16471
10.11993, -0.09859375, 0.7139252, 0.6926184, 84.97449, -17.89339, 26.24971, 21.07059
10.13993, -0.08980469, 0.7528997, 0.6518182, 77.2001, -21.82632, 24.57288, 21.16471
10.15994, -0.02803711, 0.7740924, 0.5990971, 59.82205, -0.9726586, 14.0241, 21.16471
10.17993, -0.02852539, 0.7801971, 0.6150918, 47.9318, 18.99685, 11.70702, 21.07059
10.21184, -0.1676855, 0.7721338, 0.6005033, 89.48668, 22.44198, 10.79239, 21.11765
10.22611, -0.09712891, 0.8042597, 0.5744216, 100.4623, 12.96027, 11.5241, 21.07059
10.24007, -0.02706054, 0.8093811, 0.6100164, 102.505, 7.65539, 9.877756, 21.16471
10.25993, -0.05367188, 0.8629693, 0.5390977, 99.82205, -0.1799756, 8.658244, 21.11765
10.27994, -0.08345703, 0.8520307, 0.4906865, 88.63303, -4.204366, 2.04239, 21.02353
10.29993, -0.06001953, 0.8780719, 0.4657776, 59.85254, -12.43607, -12.19542, 21.11765
10.31993, -0.128623, 0.8877777, 0.4699853, 23.96839, -9.387293, -26.31127, 21.25882
10.33993, -0.4008399, 0.804483, 0.5447233, -13.22673, 47.16759, -52.59176, 21.16471
10.35993, -0.3136816, 0.6921503, 0.5460639, 21.4379, 23.8749, -35.88444, 21.16471
10.37993, 0.1079492, 0.9082783, 0.3620265, 59.82205, -3.625098, -7.591756, 21.25882
10.41222, -0.04415039, 0.9041486, 0.4489026, 45.88912, -16.64339, 29.60337, 21.21176
10.4265, -0.2106543, 0.968819, 0.3258433, 44.48668, 0.09441471, 26.03629, 21.11765
10.44045, -0.2189551, 0.8849432, 0.3692055, 36.07205, -25.54583, 8.658244, 21.16471
10.45993, -0.4506445, 0.9640582, 0.4082929, 19.85254, -50.27144, -18.9942, 21.11765
10.47993, -0.1925879, 0.9576825, 0.3095993, 14.91351, -16.27754, -6.128342, 21.07059
10.49993, 0.1401758, 0.8542469, 0.2384881, 56.6818, 1.496854, -0.274683, 21.11765
10.51993, 0.1138086, 0.9508904, 0.5234535, 40.37083, -8.59461, 4.481415, 21.21176
10.53994, 0.255166, 0.9370209, 0.3599299, 17.41351, -44.29583, 24.96922, 21.21176
10.55993, 0.223916, 0.8388721, 0.04195307, 61.01108, -33.65559, 50.60947, 21.07059
10.57993, -0.2162695, 0.9335638, 1.483055, 40.58424, -32.16168, 16.5241, 21.16471
10.61242, -0.05367188, 0.9420947, 0.2731836, 33.63303, -27.80193, 5.944829, 21.16471
10.62673, -0.04756836, 0.9618207, 0.2326746, 21.89522, -19.53973, -1.128341, 21.16471
10.64062, 0.1125879, 0.9584418, 0.2662513, 14.33424, -12.16168, -2.469805, 21.21176
10.65993, -0.01827148, 0.9411646, 0.31582, 25.40132, -5.332415, -0.9149269, 21.25882
10.67993, -0.04415039, 0.9179584, 0.2634516, 57.29156, -20.57632, -3.110049, 21.25882
10.69993, -0.007529296, 0.9849548, 0.2474969, 48.54156, -7.466561, -3.933219, 21.21176
10.71993, -0.1330176, 0.9783612, 0.2442517, 22.80986, -13.869, -7.469805, 21.11765
10.73993, -0.135459, 0.9920392, 0.2149956, 16.98668, -0.6068048, -9.573464, 21.21176
10.75993, -0.02657226, 0.9547974, 0.2368554, 25.7062, 22.68588, 5.731415, 21.16471
10.77993, 0.04764648, 0.9450488, 0.2387308, 47.77936, 22.44198, 16.67654, 21.21176
10.8126, 0.04129883, 0.998363, 0.2430221, 51.07205, 7.198073, 18.81068, 21.16471
10.82695, -0.004599608, 1.014669, 0.1641772, 27.93181, 4.33222, 19.54239, 21.25882
10.84087, 0.02054688, 1.033217, 0.09607911, 8.450098, 5.094415, 1.432634, 21.11765
10.85993, -0.01583008, 0.9757269, 0.1864343, 11.98668, -2.07022, 1.768, 21.16471
10.87994, -0.04585938, 0.9657434, 0.2246611, 24.15132, 8.448073, 3.597269, 21.07059
10.89993, -0.0231543, 0.9898693, 0.1543765, 29.60864, 2.65539, 2.499707, 21.25882
10.91993, 0.0603418, 1.003494, 0.1701227, 20.52327, -5.911683, 0.365561, 21.16471
10.93993, 0.007363282, 1.000557, 0.1007484, 10.88912, -0.6068048, 1.371659, 21.16471
10.95994, 0.03470703, 0.9798559, 0.1791425, 18.75498, 19.45417, 5.396049, 21.16471
10.97993, -0.05025391, 0.9676691, 0.1458432, 39.15132, 30.39929, 8.29239, 21.16471
11.01275, -0.05171875, 1.015457, 0.1188275, 51.65132, 12.44198, 4.54239, 21.16471
11.02708, 0.01126953, 1.020531, 0.04530478, 37.29156, -0.119, 2.133854, 21.16471
11.04096, 0.06839844, 1.022495, 0.04207997, 19.4562, -6.490952, 0.2740976, 21.16471
11.05993, -0.004843749, 1.006659, 0.06243157, 11.74278, -6.887292, 0.3960488, 21.21176
11.07993, -0.002402343, 0.9917834, 0.1087189, 15.85863, -7.314122, 0.1521463, 21.25882
11.09993, -0.04463867, 1.01601, 0.04009426, 8.358634, -16.91778, -0.884439, 21.16471
11.11993, -0.05782227, 1.005206, 0.0729673, 2.230585, -17.98485, -0.9149269, 21.16471
11.13993, -0.01485351, 0.9851954, 0.02635484, 6.803756, -14.02144, -0.8539513, 21.16471
11.15993, 0.005410157, 1.010304, 0.02777563, 2.139122, -6.308024, -0.3966341, 21.25882
11.17993, 0.008339845, 1.003752, 0.03219383, 1.437902, 0.3383171, 0.09117073, 21.16471
11.21292, -0.009726562, 0.9934992, 0.04681167, 11.37693, 1.100512, 0.8533659, 21.21176
11.22719, -0.0006933585, 1.006893, 0.04876225, 6.742781, -1.216561, 0.3960488, 21.16471
11.24109, -0.004843749, 1.011761, 0.0819763, -3.074293, -5.942171, -1.036878, 21.25882
11.25993, 0.01053711, 0.9988611, 0.07783356, -7.982829, -8.899488, -1.311268, 21.21176
11.27993, 0.008339845, 0.9825482, 0.06473536, 6.89522, -3.838512, 0.518, 21.11765
11.29993, 0.0007714853, 0.9969019, 0.04830456, 16.52937, -0.6372926, 1.219219, 21.11765
11.31993, 0.003701173, 1.005668, 0.03299761, 6.834244, -0.5153414, 0.06068292, 21.21176
11.33994, -0.00142578, 1.013476, 0.02591372, -9.507219, -1.399488, -1.250293, 21.07059
11.35993, -0.003378905, 0.9949445, 0.05580027, -10.90966, -0.3629024, -0.6405365, 21.11765
11.37993, -0.006552733, 0.9813202, 0.07473493, 2.779366, -0.02753651, 0.6094635, 21.11765
11.41308, -0.00118164, 1.013959, 0.02153702, -1.763317, 0.03343904, -0.6405365, 21.21176
11.42736, -0.0002050772, 1.017145, 0.02908881, -12.83039, -0.02753651, -1.128341, 21.11765
11.44128, -0.003134765, 1.003973, 0.04262306, -16.39746, 0.06392682, -1.402732, 21.11765
11.45993, -0.00899414, 0.9910791, 0.07261157, -10.26942, 0.3688049, -0.5490732, 21.16471
11.47993, -0.006064452, 0.9886328, 0.07182562, -1.397464, 0.1249025, 0.03019512, 21.16471
11.49993, -0.006552733, 0.9976483, 0.05362596, 0.2183902, 0.1858781, 0.2436098, 21.11765
11.51993, -0.00508789, 1.009583, 0.04509377, -4.202342, -0.2104634, -0.5185853, 21.16471
11.53993, -0.00118164, 1.009828, 0.05114886, -13.71454, -1.033634, -1.158829, 21.21176
11.55993, 0.00272461, 0.9971594, 0.07376728, -11.48893, -0.6677805, -0.884439, 21.21176
11.57993, -0.003867187, 0.982309, 0.08590675, 1.498878, 0.002951264, 0.518, 21.21176
11.61329, 0.000283204, 0.9913068, 0.06452307, 16.04156, 0.7346586, 1.249707, 21.21176
11.62755, -0.006308593, 0.9998346, 0.04972735, 14.36473, 0.2773415, 1.158244, 21.25882
11.64139, -0.001669921, 1.007402, 0.03926881, 7.992781, 0.09441471, 0.5789756, 21.25882
11.65993, 0.001259767, 1.012026, 0.0472974, -0.5133171, 0.09441471, -0.06126827, 21.16471
11.67993, -0.003134765, 0.9966681, 0.06260436, 0.6452195, 0.09441471, 0.2740976, 21.16471
11.69993, -0.003378905, 0.9961884, 0.05796185, 6.864732, -0.02753651, 0.7009268, 21.16471
11.71993, -0.007041015, 0.9913141, 0.06555188, 14.48668, 0.1553903, 1.432634, 21.25882
11.73993, 0.000283204, 1.001796, 0.03371093, 14.57815, 0.6431952, 0.9753171, 21.16471
11.75993, 0.007851563, 1.021526, 0.01745035, -2.098683, 1.527341, -0.1832195, 21.25882
11.77993, -0.004843749, 1.010319, 0.04808208, -12.03771, -0.4543658, -0.9149269, 21.21176
11.81348, -0.001914062, 0.9840033, 0.06723665, 0.6452195, 0.5822196, 0.365561, 21.25882
11.82786, -0.01216797, 0.989854, 0.05799245, 6.986683, 0.2773415, 0.7923903, 21.25882
11.84179, -0.002402343, 0.9971576, 0.05439533, 7.931805, 0.09441471, 0.5789756, 21.16471
11.85993, 0.004921876, 1.011013, 0.02007727, -2.190146, -0.1494877, -0.4576097, 21.16471
11.87993, 0.004433595, 1.005925, 0.03856569, -11.15356, -0.05802441, -0.7624878, 21.21176
11.89992, 0.0007714853, 0.989602, 0.07210035, -7.556, -0.119, -0.3661463, 21.16471
11.91993, -0.00533203, 0.9949774, 0.06311557, -0.02551222, 0.06392682, -0.1527317, 21.16471
11.93993, -0.008505858, 0.996908, 0.05776997, 0.4318049, -0.5153414, 0.06068292, 21.16471
11.95993, 3.906339e-05, 0.999345, 0.05015956, -1.671854, -0.4848536, -0.1222439, 21.16471
11.97993, -0.00118164, 0.9988629, 0.06145246, -3.074293, -0.3019269, -0.3966341, 21.25882
12.0136, -0.003867187, 0.9954376, 0.06235003, -7.220634, -0.5458293, -0.5185853, 21.21176
12.02803, -0.004355468, 0.9905762, 0.05666852, -4.385268, 0.06392682, -0.2441951, 21.21176
12.04192, 0.003701173, 0.9942511, 0.06381487, -0.4523415, 0.3688049, 0.1521463, 21.16471
12.05993, 0.005410157, 1.000815, 0.06308626, 2.870829, 0.002951264, 0.4265366, 21.30588
12.07993, 0.001259767, 1.012769, 0.05263409, -0.6657561, -0.05802441, -0.2441951, 21.21176
12.09993, -0.001914062, 1.014484, 0.04824339, -8.866976, -0.3933902, -0.6405365, 21.21176
12.11993, -0.005576171, 0.9910614, 0.06821066, -7.220634, -0.1799756, -0.6710244, 21.21176
12.13993, -0.002402343, 0.9932641, 0.07354098, -2.373073, -0.2104634, -0.1832195, 21.21176
12.15993, 0.0007714853, 0.997143, 0.06549835, 0.5842439, 0.1553903, 0.1216585, 21.16471
12.17993, 0.0005273447, 0.9956848, 0.06282811, 0.06595123, -0.119, -0.03078049, 21.25882
12.21384, -0.008017577, 0.9979022, 0.07351294, 3.023268, 0.3383171, 0.2740976, 21.16471
12.22819, -0.007773437, 0.9927637, 0.07035185, 6.407414, 0.09441471, 0.5484878, 21.16471
12.24205, -0.00142578, 0.9915436, 0.06137982, 8.084244, 0.2468537, 0.6399512, 21.21176
12.25993, 0.0005273447, 1.0069, 0.0533678, 5.065951, 0.3992927, 0.3045854, 21.21176
12.27993, -0.00508789, 1.004966, 0.05535532, 1.773268, 0.2773415, 0.03019512, 21.25882
12.29993, -0.002158202, 0.9995739, 0.05315678, -2.616976, 1.161488, -0.3051707, 21.21176
12.31993, 0.01224609, 1.003248, 0.05384079, -7.83039, 2.716366, -0.4880976, 21.21176
12.33993, -0.006796874, 0.9959284, 0.06524147, -4.324293, 0.1553903, -0.1832195, 21.11765
12.35993, -0.006064452, 0.9910736, 0.06840383, 3.937902, 0.2468537, 0.365561, 21.11765
12.37994, -0.008749999, 0.9964197, 0.06093106, 7.352537, 0.09441471, 0.5484878, 21.21176
12.41396, 0.001992188, 1.01444, 0.04901786, -16.15356, -1.155585, -1.250293, 21.07059
12.42831, 0.001259767, 1.013004, 0.05749014, -23.07429, -1.429976, -1.829561, 21.25882
12.44214, -0.008749999, 1.007889, 0.07379658, -27.70844, -2.862902, -2.378342, 21.25882
12.45993, -0.0231543, 0.9991058, 0.08126044, -31.33649, -9.051928, -3.232, 21.16471
12.47993, -0.01290039, 0.9957001, 0.09684977, -30.42186, -11.58242, -3.262488, 21.16471
12.49993, 0.005654298, 0.988634, 0.09200391, -29.41576, -10.30193, -3.445415, 21.21176
12.51993, 0.001748048, 1.003248, 0.09080233, -34.41576, -6.490952, -3.719805, 21.16471
12.53993, -0.004843749, 1.007868, 0.1194083, -47.556, -8.16778, -5.091756, 21.16471
12.55993, 0.001748048, 1.000814, 0.1298503, -61.45844, -7.801927, -6.402732, 21.21176
12.57993, -0.003867187, 0.980116, 0.1701597, -58.83649, -6.277537, -6.067366, 21.21176
12.61416, -0.02144531, 0.9666962, 0.1840056, -40.02552, -5.515342, -4.512488, 21.16471
12.62854, -0.007773437, 0.9830414, 0.1937152, -41.94624, -5.301927, -5.183219, 21.11765
12.6424, -0.01485351, 0.9852246, 0.2007965, -48.01332, -6.856805, -6.097854, 21.21176
12.65993, -0.01509766, 0.9925373, 0.20927, -58.806, -5.423878, -6.189317, 21.21176
12.67993, -0.02901367, 0.9681634, 0.245939, -61.00112, -2.405585, -4.725903, 21.21176
12.69993, -0.01949219, 0.9574603, 0.2855453, -56.27552, -2.283634, -3.445415, 21.21176
12.71994, -0.024375, 0.9594012, 0.2965024, -57.3121, -4.966561, -3.384439, 21.25882
12.73993, -0.02901367, 0.9562378, 0.3042422, -70.08649, -11.27754, -6.524683, 21.16471
12.75993, -0.02339844, 0.9545356, 0.3093386, -79.87308, -8.564121, -7.317366, 21.25882
12.77993, -0.02291016, 0.9409106, 0.3450973, -85.72673, -6.033634, -6.799073, 21.25882
12.81425, -0.0268164, 0.9114057, 0.3933716, -92.22064, 1.009049, -6.28078, 21.25882
12.82865, -0.04219727, 0.9009693, 0.41945, -92.09868, 0.978561, -5.610049, 21.21176
12.84244, -0.02876953, 0.8953626, 0.4490684, -90.17796, -1.795829, -3.262488, 21.21176
12.85993, -0.03682617, 0.8765881, 0.4960326, -89.35478, -7.801927, -4.786878, 21.21176
12.87993, -0.04244141, 0.8763733, 0.4431664, -97.95235, -19.53973, -7.317366, 21.11765
12.89993, -0.1252051, 0.870534, 0.5670213, -111.9158, -24.23486, -5.945415, 21.21176
12.91993, 0.0290918, 0.8532574, 0.5539269, -117.7389, -1.978756, -2.164927, 21.21176
12.93993, -0.07833008, 0.7920984, 0.6337796, -116.4889, 1.527341, 1.310683, 21.21176
12.95993, -0.02657226, 0.7543512, 0.6277184, -106.8548, 5.795634, 4.603366, 21.21176
12.97993, -0.01192383, 0.7304834, 0.6540308, -100.9097, 7.045634, 1.615561, 21.16471
13.01444, -0.04097656, 0.6830304, 0.7405026, -115.056, -15.27144, -11.06737, 21.16471
13.02874, -0.03169922, 0.6206701, 0.7391953, -110.2694, -12.77144, -12.01249, 21.25882
13.04256, -0.05318359, 0.6691394, 0.770843, -107.0377, -14.44827, -7.896635, 21.16471
13.05993, -0.002890624, 0.6993659, 0.6600489, -106.7633, 5.521244, 2.530195, 21.16471
13.07993, 0.03470703, 0.6523645, 0.611834, -103.4401, 51.6188, 15.82288, 21.35294
13.09993, -0.0006933585, 0.5785669, 0.7942048, -103.928, 66.34441, 15.06068, 21.07059
13.11993, -0.1012793, 0.4928052, 0.987131, -108.1658, 26.55783, -5.518585, 21.25882
13.13993, -0.05928711, 0.411759, 0.899886, -108.3487, -0.3019269, -37.31736, 21.21176
13.15993, -0.1230078, 0.4954974, 0.8859157, -95.75723, -21.30802, -30.03078, 21.21176
13.17993, -0.08248047, 0.5252111, 0.8344676, -90.87917, -15.3629, -13.17103, 21.30588
13.2146, -0.02950195, 0.454342, 0.8446068, -91.5499, 26.131, 11.5241, 21.16471
13.22898, -0.07027344, 0.356167, 1.032849, -99.38527, 13.23466, 3.414341, 21.30588
13.24277, -0.07369141, 0.3265009, 0.9376258, -98.5926, 5.704171, -6.067366, 21.25882
13.25993, -0.07540039, 0.3135755, 0.9651093, -96.94625, -1.978756, -12.92712, 21.16471
13.27993, -0.08345703, 0.3028687, 0.9390359, -92.7999, -1.582415, -11.982, 21.16471
13.29993, -0.07808594, 0.3118902, 0.942684, -87.03772, 3.173683, -4.664927, 21.21176
13.31993, -0.08345703, 0.2412268, 0.965746, -87.28161, 0.6127074, -7.378342, 21.25882
13.33993, -0.0568457, 0.2091022, 0.9521698, -94.32429, 0.8566098, -16.21981, 21.25882
13.35994, -0.03560547, 0.1265491, 0.9789334, -100.3609, -3.259244, -27.56127, 21.25882
13.37993, -0.0634375, 0.1730133, 0.9800005, -101.8243, 0.6127074, -17.46981, 21.30588
13.41484, -0.1029883, 0.132135, 1.015358, -76.09259, -2.161683, -3.811268, 21.16471
13.42924, -0.08345703, 0.06369263, 1.00713, -70.90966, -3.838512, -3.78078, 21.11765
13.4431, -0.06954102, 0.1009509, 0.9831182, -69.04991, -7.801927, 0.4875122, 21.21176
13.45993, -0.1044531, -0.03197144, 1.13165, -51.27552, -27.89339, -5.549073, 21.16471
13.47993, 0.05057617, -0.01913757, 0.9466814, -2.312098, 3.234659, 0.4570244, 21.16471
13.49993, -0.06246094, 0.01696045, 0.9988307, -0.5133171, 0.6736829, -0.4880976, 21.25882
13.51993, -0.07686523, 0.03058105, 0.9966423, -0.5742927, 0.6736829, 0.4265366, 21.25882
13.53993, -0.07491211, 0.03303101, 0.995208, -2.586488, 1.191976, 0.7314147, 21.21176
13.55993, -0.09371094, 0.02036743, 1.007353, -10.39137, 0.06392682, 11.00581, 21.25882
13.57993, -0.0790625, 0.006236572, 1.025898, -15.90966, 0.6127074, 19.5119, 21.16471
13.61494, -0.1254492, -0.0117926, 1.008347, -0.08648777, 19.45417, 0.5789756, 21.16471
13.62953, -0.114707, 0.001340942, 0.9843225, 0.8281464, 18.29564, -2.500293, 21.11765
13.64341, -0.1239844, 0.04512817, 1.128499, 1.559854, 1.862707, 0.2740976, 21.16471
13.65993, -0.08321289, 0.02305115, 1.001716, 0.3098537, 0.4907561, 0.670439, 21.25882
13.67993, -0.08663086, 0.02938354, 1.001272, 0.2183902, 0.4602683, 1.889951, 21.11765
13.69993, -0.07466797, 0.02084106, 0.9978414, -0.7267318, -0.1494877, 3.29239, 21.21176
13.71993, -0.07979492, 0.02182068, 0.995681, -0.7572196, -0.2104634, 2.652146, 21.30588
13.73993, -0.09004883, 0.01841125, 0.9925289, -0.2999024, 0.3688049, 1.737512, 21.21176
13.75993, -0.0856543, 0.03131592, 0.9738511, -0.6657561, 0.2773415, -0.1527317, 21.16471
13.77993, -0.08785156, 0.01768005, 0.9944717, 0.7671707, 1.100512, -0.09175611, 21.25882
13.81514, -0.08516602, 0.01817444, 0.9903481, 0.2183902, 0.2773415, -0.0002926588, 21.16471
13.82965, -0.08467773, 0.02059143, 0.9949575, 0.4927805, 0.2468537, 0.1521463, 21.21176
13.84351, -0.08833984, 0.02037109, 0.9947197, 0.2183902, 0.1858781, 0.2436098, 21.16471
13.85993, -0.0856543, 0.01911804, 1.000301, 0.4622927, 0.4297805, -0.0002926588, 21.30588
13.87994, -0.08467773, 0.02230835, 1.002751, 0.4013171, 0.2163659, 0.06068292, 21.25882
13.89993, -0.08394531, 0.01841431, 0.9949473, 0.248878, 0.3688049, -0.09175611, 21.11765
13.91993, -0.09541992, 0.01743408, 0.9991168, 0.2793658, 0.2773415, -0.0002926588, 21.21176
13.93993, -0.08614258, 0.02132874, 0.9935041, -0.02551222, -0.02753651, 0.03019512, 21.21176
13.95993, -0.08956055, 0.02375977, 1.001289, 0.06595123, 0.06392682, 0.03019512, 21.21176
13.97993, -0.08736328, 0.02304382, 0.9976545, 0.004975557, -0.2104634, 0.2740976, 21.21176
14.01528, -0.09078125, 0.02426636, 0.9859804, -0.1474634, 0.03343904, 1.341171, 21.16471
14.02987, -0.09883789, 0.0145105, 0.9993609, -0.02551222, 0.002951264, 0.4265366, 21.25882
14.04371, -0.09200195, 0.02768127, 0.9966754, 0.3098537, 0.2163659, 0.2131219, 21.16471
14.05993, -0.09126953, 0.02501343, 0.9893474, 0.1269268, 0.1858781, -0.06126827, 21.16471
14.07993, -0.09297852, 0.02206116, 0.9937419, -0.02551222, 0.09441471, -0.09175611, 21.25882
14.09993, -0.08858398, 0.01817139, 0.9924932, -0.05599999, -0.02753651, 0.2131219, 21.16471
14.11993, -0.09102539, 0.01913086, 0.9969005, -0.1169757, 0.1249025, -0.1222439, 21.16471
14.13993, -0.09029297, 0.02376526, 0.9927475, 0.004975557, -0.1799756, 0.2740976, 21.07059
14.15993, -0.08321289, 0.02035034, 0.996163, -0.1779512, 0.1249025, 0.9448293, 21.25882
14.17993, -0.08760742, 0.020354, 0.9956963, -0.08648777, 0.2163659, 1.036293, 21.21176
14.21548, -0.09395508, 0.01913941, 0.9900595, 0.096439, -0.119, 0.1521463, 21.16471
14.22995, -0.09224609, 0.01742493, 0.985923, -0.1169757, 0.06392682, 0.1216585, 21.21176
14.24383, -0.08882813, 0.02377869, 0.996889, 0.03546345, -0.271439, 0.1521463, 21.30588
14.25994, -0.08858398, 0.02305115, 1.006915, 0.1574147, 0.1858781, 0.06068292, 21.25882
14.27993, -0.08736328, 0.02401123, 0.9983679, 0.096439, 0.1858781, 0.06068292, 21.25882
14.29993, -0.08907227, 0.02035889, 1.000113, 0.004975557, -0.08851218, 0.1216585, 21.25882
14.31993, -0.09053711, 0.01767395, 0.9893397, 0.1574147, 0.1249025, 0.09117073, 21.16471
14.33993, -0.09297852, 0.02255005, 0.9924983, 0.096439, 0.1249025, -0.1832195, 21.25882
14.35993, -0.09297852, 0.02303223, 0.99444, -0.02551222, 0.3078293, 0.1216585, 21.16471
14.37993, -0.09737305, 0.02865295, 0.9971217, 0.03546345, 0.03343904, 0.03019512, 21.21176
14.4157, -0.08711914, 0.02036743, 1.00083, 0.06595123, 0.1858781, -0.1222439, 21.21176
14.43017, -0.09126953, 0.01913757, 0.9986567, -0.02551222, 0.06392682, -0.03078049, 21.16471
14.444, -0.09053711, 0.0247406, 0.9976278, -0.02551222, -0.05802441, 0.03019512, 21.25882
14.45993, -0.0946875, 0.01767517, 0.9942085, -0.02551222, 0.03343904, -0.03078049, 21.21176
14.47993, -0.09053711, 0.02742737, 0.9991168, -0.05599999, 0.1249025, 0.1826341, 21.21176
14.49993, -0.08736328, 0.01718872, 0.99252, 0.004975557, 0.2773415, -0.1222439, 21.30588
14.51994, -0.08931641, 0.02401001, 0.9988421, 0.1879025, -0.1799756, 0.1521463, 21.21176
14.53994, -0.08882813, 0.02035583, 0.9981339, 0.004975557, 0.06392682, -0.0002926588, 21.16471
14.55993, -0.08833984, 0.02376282, 0.9983933, 0.004975557, 0.03343904, 0.1826341, 21.16471
14.57993, -0.08980469, 0.01840027, 0.9971726, 0.096439, -0.02753651, 0.1826341, 21.16471
14.61579, -0.09371094, 0.02352234, 1.001318, 0.1574147, 0.06392682, -0.0002926588, 21.21176
14.63026, -0.08785156, 0.01912598, 0.9903788, 0.1574147, 0.1553903, -0.1527317, 21.25882
14.64414, -0.09102539, 0.01597717, 0.9996102, 0.096439, 0.1249025, 0.03019512, 21.16471
14.65994, -0.08956055, 0.01791687, 1.001103, -0.02551222, 0.1858781, 0.1216585, 21.21176
14.67993, -0.09249023, 0.02473389, 0.9878494, 0.03546345, 0.03343904, -0.0002926588, 21.21176
14.69993, -0.08785156, 0.01768005, 0.9966525, 0.004975557, -0.05802441, 0.06068292, 21.21176
14.71993, -0.08956055, 0.02303833, 0.9930172, 0.004975557, 0.002951264, 0.03019512, 21.21176
14.73993, -0.09029297, 0.02572082, 0.9967022, 0.06595123, 0.06392682, -0.03078049, 21.30588
14.75993, -0.09078125, 0.02232056, 0.9927551, -0.1474634, 0.1249025, 0.03019512, 21.25882
14.77993, -0.09444336, 0.02719421, 0.9971777, -0.1169757, 0.1553903, -0.1527317, 21.25882
14.81602, -0.09004883, 0.01913025, 0.9978783, -0.05599999, 0.1553903, 0.09117073, 21.25882
14.83045, -0.09078125, 0.02280273, 0.9893448, -0.05599999, 0.03343904, -0.1527317, 21.25882
14.8444, -0.09566406, 0.02327209, 0.9903329, -0.1169757, 0.06392682, -0.03078049, 21.25882
14.85993, -0.08736328, 0.02280762, 0.9993725, -0.08648777, -0.119, 0.09117073, 21.16471
14.87993, -0.08882813, 0.01939148, 0.997404, -0.1169757, -0.05802441, 0.06068292, 21.16471
14.89993, -0.08663086, 0.02304199, 0.9956938, 0.096439, 0.03343904, 0.2436098, 21.11765
14.91993, -0.09297852, 0.01863708, 0.9824873, 0.004975557, 0.03343904, 0.06068292, 21.21176
14.93993, -0.09200195, 0.02132568, 0.9871475, -0.1169757, 0.1553903, 0.06068292, 21.30588
14.95993, -0.08711914, 0.02229798, 0.9910538, -0.208439, 0.2163659, -0.0002926588, 21.21176
14.97993, -0.08638672, 0.02401611, 0.9983603, -0.02551222, 0.09441471, -0.06126827, 21.21176
15.01619, -0.08931641, 0.01741211, 0.9993661, -0.1474634, -0.02753651, -0.06126827, 21.25882
