time,acc_x,acc_y,acc_z,gyro_x,gyro_y,gyro_z,temp
0.0, 0.003457032, 0.03032837, 0.9973709, 0.3098537, 1.740756, 0.9143414, 20.6
0.019953, -0.002890624, 0.04472778, 1.001016, 1.559854, 1.862707, -1.585659, 20.50588
0.039946, -0.0165625, 0.0476355, 0.9784286, 2.535463, 0.978561, -3.018585, 20.6
0.059938, -0.02144531, 0.07296265, 0.9721026, 0.5232683, 2.076122, -2.103951, 20.6
0.079938, -0.03194336, 0.06517822, 0.9794026, -1.58039, 2.594415, 0.8838537, 20.6
0.099936, -0.03633789, 0.03058532, 1.006388, -0.1474634, 1.039537, 1.615561, 20.6
0.119935, -0.01631836, 0.02962219, 1.012967, 2.017171, 1.83222, 2.011902, 20.6
0.139937, 0.006875001, 0.007201538, 1.006868, 4.852537, 0.826122, -1.982, 20.55294
0.159936, 0.01126953, 0.03959351, 1.009346, 4.364732, 0.6127074, -4.116146, 20.6
0.179938, 0.009560548, 0.05736755, 0.996692, 1.254976, 1.862707, -2.713707, 20.55294
0.200124, -0.005576171, 0.05491699, 1.000054, -2.677951, 3.204171, -0.3966341, 20.6
0.219948, -0.03707031, 0.04884216, 1.00175, -3.287708, 3.173683, 2.133854, 20.64706
0.239934, -0.03877929, 0.04422607, 1.014171, -2.373073, 3.783439, 2.896049, 20.55294
0.259934, -0.0334082, 0.02523133, 1.011003, 0.8586341, 2.594415, -0.03078049, 20.64706
0.279938, -0.05147461, 0.04229065, 1.004428, 1.011073, 0.7041708, -0.9149269, 20.6
0.29994, -0.02144531, 0.04641724, 1.0083, -0.4218536, 1.009049, -0.3356586, 20.69412
0.319936, -0.02461914, 0.05201965, 0.9966652, -1.062098, 2.228561, 0.4875122, 20.69412
0.339936, -0.01460937, 0.04397034, 0.9896502, -1.641366, 2.868805, 1.280195, 20.6
0.359936, -0.03633789, 0.02400879, 0.9896247, 0.3708293, 1.984659, 1.432634, 20.6
0.379935, -0.03414062, 0.0315509, 0.9866796, 3.053756, 1.313927, 0.670439, 20.6
0.399965, -0.04097656, 0.06249512, 0.9770084, 2.71839, 1.649293, 0.09117073, 20.69412
0.419944, -0.05147461, 0.06834351, 0.9835836, 0.8891219, 0.7956342, 0.2436098, 20.55294
0.439936, -0.04634766, 0.0693042, 0.9869379, -1.793805, 0.7041708, 0.8838537, 20.55294
0.459936, -0.04268555, 0.04543823, 0.9922987, -2.434049, -0.728756, 1.188732, 20.55294
0.479936, -0.02950195, 0.02814514, 0.9983665, -0.02551222, 1.009049, 2.255805, 20.64706
0.499935, -0.01802734, 0.03471985, 1.004704, 3.023268, 2.198073, 1.859464, 20.64706
0.519934, -0.02657226, 0.05979004, 1.002734, 2.322049, 0.3688049, -0.2441951, 20.64706
0.539934, -0.02925781, 0.07758606, 0.9765176, -1.427951, 0.6127074, 0.2131219, 20.6
0.559939, -0.03487304, 0.0692981, 0.9918283, -3.806, 0.7956342, 1.097268, 20.6
0.579938, -0.04195313, 0.04883789, 1.00492, -3.348683, -0.8507072, 1.463122, 20.6
0.599985, -0.03951172, 0.03715271, 1.005453, 0.2793658, -0.5763171, 1.066781, 20.6
0.619952, -0.01290039, 0.04664551, 1.006072, 1.437902, 0.4602683, -0.3966341, 20.69412
0.639939, -0.01387695, 0.049823, 1.019487, 0.096439, 0.7651464, -0.6405365, 20.6
0.659938, -0.0231543, 0.04884705, 1.002748, -1.641366, 0.2773415, -0.09175611, 20.69412
0.679938, -0.02486328, 0.04787598, 1.000317, -2.037707, -0.119, -0.6710244, 20.64706
0.69994, -0.03121094, 0.06029175, 0.9857044, -2.037707, 0.06392682, -1.250293, 20.64706
0.71994, -0.04219727, 0.0561554, 0.9893678, -1.275512, -0.05802441, -1.250293, 20.64706
0.739933, -0.03926758, 0.03130493, 1.013494, -1.245024, 0.1858781, -0.1527317, 20.64706
0.759931, -0.03560547, 0.03473694, 1.00639, -0.7572196, 0.9175854, 0.518, 20.64706
0.779937, -0.03829101, 0.03839111, 0.9991322, -0.1779512, 0.7956342, 0.7314147, 20.55294
0.799979, -0.04439453, 0.04080566, 0.9869545, 0.7061951, 0.8566098, 2.621659, 20.64706
0.819955, -0.024375, 0.05835022, 0.9852608, -0.5742927, 1.40539, 1.920439, 20.69412
0.839941, -0.02828125, 0.04544067, 0.9918309, -0.7572196, -0.05802441, 0.4875122, 20.6
0.8599339, -0.01460937, 0.04518616, 0.9949473, -1.092585, -0.8507072, -0.8234634, 20.6
0.8799399, -0.03243164, 0.04397888, 0.9966245, -1.306, -0.4238781, -0.09175611, 20.50588
0.899934, -0.03511719, 0.04033997, 0.999848, -0.4828293, 0.6431952, 2.194829, 20.6
0.91994, -0.04219727, 0.0400647, 1.003495, -1.153561, 0.6736829, 3.383854, 20.50588
0.939933, -0.02583984, 0.04107544, 1.009753, -1.793805, 0.1553903, 1.49361, 20.55294
0.959937, -0.03389648, 0.0315564, 1.003901, -0.9096586, -1.734854, -0.732, 20.64706
0.979936, -0.03072265, 0.02861938, 1.001004, -1.03161, 0.2468537, 1.036293, 20.64706
1.000097, -0.02852539, 0.03131226, 1.013153, -1.427951, 1.740756, 2.133854, 20.6
1.019948, -0.0268164, 0.02669495, 1.021267, 1.651317, 1.313927, -1.158829, 20.55294
1.039938, -0.02510742, 0.04520508, 0.9956517, 2.16961, 0.7956342, -1.677122, 20.64706
1.059942, -0.03536133, 0.05372863, 0.9905617, 0.5232683, 0.7956342, 1.49361, 20.6
1.079936, -0.03194336, 0.05176575, 1.003425, -0.7267318, 2.076122, 3.170439, 20.6
1.099933, -0.02291016, 0.05103881, 1.004905, -1.275512, 0.7956342, -0.06126827, 20.69412
1.119935, -0.02852539, 0.04982605, 0.9934468, -0.7877073, 0.002951264, -1.738098, 20.6
1.139938, -0.0346289, 0.04179016, 0.9930107, -0.6657561, -0.4848536, -0.884439, 20.6
1.15994, -0.03389648, 0.03935791, 0.9983271, 0.1879025, 1.161488, 1.310683, 20.64706
1.179929, -0.0412207, 0.04860535, 1.003216, -1.214537, 1.67978, 1.889951, 20.6
1.204029, -0.0346289, 0.0366925, 0.996154, -1.732829, 1.923683, 1.005805, 20.74118
1.21995, -0.03072265, 0.0271698, 1.000069, -1.519415, 2.10661, 1.066781, 20.64706
1.239935, -0.04, 0.03838623, 0.9937012, -1.336488, 1.588317, 1.219219, 20.55294
1.25994, -0.03804687, 0.03472778, 0.9918283, -0.9401464, 1.100512, 0.2740976, 20.6
1.279937, -0.04048828, 0.03277161, 0.9922682, -1.123073, 0.1249025, -0.6710244, 20.55294
1.29994, -0.0490332, 0.02962952, 0.9925774, 0.4318049, 0.7346586, -0.7015122, 20.6
1.319938, -0.05123047, 0.0296228, 0.9830597, 0.7061951, 0.2468537, 0.8228781, 20.69412
1.339932, -0.06124023, 0.03863342, 0.9845169, 0.8281464, -0.1494877, 2.286293, 20.6
1.359932, -0.04805664, 0.05033142, 0.9891249, 0.5232683, 0.3078293, 2.835073, 20.6
1.379938, -0.03951172, 0.05445557, 0.9827785, 0.4013171, 0.1858781, 1.463122, 20.6
1.404279, -0.03682617, 0.05834167, 0.9952246, -0.208439, -0.6982683, 0.2740976, 20.64706
1.41995, -0.04341797, 0.05396301, 1.001523, -1.458439, -1.216561, 0.3350732, 20.64706
1.439938, -0.03291992, 0.03838501, 1.006831, -1.427951, -1.612902, 1.127756, 20.6
1.459939, -0.02632812, 0.03522277, 1.003187, 0.3403414, 0.3078293, 1.768, 20.64706
1.479936, -0.02974609, 0.04423218, 1.005364, -0.1169757, 0.3992927, 0.9143414, 20.64706
1.499937, -0.01924805, 0.04130127, 1.012666, 0.3098537, 0.9175854, 0.1521463, 20.64706
1.519938, -0.0268164, 0.05613525, 1.008086, -1.458439, 0.2773415, -0.3051707, 20.64706
1.539933, -0.03829101, 0.05811401, 0.9883759, -2.83039, -0.2409512, -0.3051707, 20.64706
1.559935, -0.04756836, 0.04324768, 0.9906089, -2.556, -0.05802441, 0.2436098, 20.69412
1.579934, -0.04, 0.0345105, 0.9949652, -0.1474634, 0.1249025, -0.03078049, 20.6
1.604489, -0.04, 0.02644348, 1.002996, 1.011073, -0.08851218, 0.5484878, 20.64706
1.619951, -0.02803711, 0.03129761, 1.005632, 0.5842439, 0.3383171, 1.249707, 20.50588
1.63994, -0.0334082, 0.0452063, 1.004442, -0.4828293, -0.3019269, 0.7923903, 20.69412
1.659939, -0.02730469, 0.04372498, 1.000738, -1.184049, 0.2773415, 0.7923903, 20.69412
1.67994, -0.02876953, 0.05299011, 0.9898981, -0.9706343, 0.826122, 1.371659, 20.6
1.699936, -0.02632812, 0.04934387, 0.9937126, -1.519415, 1.131, 0.7923903, 20.6
1.71994, -0.02754883, 0.03374207, 1.001042, -2.251122, -0.2409512, -0.9454146, 20.6
1.739931, -0.03023437, 0.0235199, 1.009806, -0.5742927, 0.3992927, -0.9454146, 20.55294
1.759932, -0.0321875, 0.02790833, 0.987384, 0.3098537, 1.039537, -0.3356586, 20.64706
1.779936, -0.03951172, 0.02765259, 0.9886328, 1.041561, 0.9480732, -0.4271219, 20.64706
1.804669, -0.04732422, 0.04835571, 0.9879335, -0.4218536, -0.4848536, -0.8539513, 20.64706
1.819942, -0.04708008, 0.04301147, 0.988854, -2.647464, -0.8202195, -0.6710244, 20.6
1.839939, -0.04537109, 0.01963623, 1.014936, -2.159659, -0.8507072, 0.8838537, 20.6
1.859942, -0.03047851, 0.007938232, 1.001216, 0.8281464, -0.02753651, 1.127756, 20.69412
1.879938, -0.02095703, 0.01692932, 1.004602, 2.017171, -0.02753651, -0.03078049, 20.69412
1.899936, -0.02608398, 0.04250549, 1.005192, 0.6147317, 0.09441471, 0.1521463, 20.64706
1.91994, -0.03487304, 0.05614868, 0.995442, -2.00722, 0.3078293, -0.3051707, 20.6
1.939936, -0.03096679, 0.03691528, 1.010777, -4.385268, 0.9175854, -0.3051707, 20.69412
1.959938, -0.04048828, 0.0179187, 1.001468, -1.793805, 0.3992927, 0.1521463, 20.55294
1.979936, -0.03023437, 0.01450745, 1.012234, -0.2694147, 2.076122, 1.49361, 20.55294
2.004802, -0.02706054, 0.007918701, 1.019997, 0.096439, 1.070024, -0.1832195, 20.6
2.019955, -0.03755859, 0.01669006, 1.012239, -0.02551222, 0.4297805, -0.579561, 20.6
2.03994, -0.03877929, 0.02814026, 0.9808318, 0.06595123, 0.7346586, 0.3350732, 20.55294
2.059936, -0.04683594, 0.03422424, 0.990099, -0.08648777, 0.8870975, 1.188732, 20.64706
2.079937, -0.04146484, 0.03984558, 0.9791597, 0.8281464, 0.4907561, 0.6399512, 20.6
2.099938, -0.05269531, 0.04910034, 0.987632, -0.4523415, 0.1249025, 0.7009268, 20.69412
2.119941, -0.04341797, 0.03373108, 0.9947453, -1.610878, -0.3019269, 0.518, 20.6
2.139934, -0.03902344, 0.03060608, 0.9924893, -1.366976, 0.2468537, 0.2740976, 20.6
2.159935, -0.03096679, 0.02864075, 0.9967022, -0.3303902, 0.1553903, 0.03019512, 20.6
2.179938, -0.04537109, 0.04031982, 0.9903277, 0.1574147, 0.3383171, 1.066781, 20.6
2.204965, -0.03267578, 0.04690796, 0.995442, -1.610878, 1.009049, 1.585073, 20.6
2.219952, -0.03658203, 0.04008728, 1.006656, -3.226732, 0.7346586, 0.5484878, 20.55294
2.239938, -0.03560547, 0.03277527, 0.9980957, -3.165756, -0.2409512, -1.250293, 20.64706
2.259937, -0.04317383, 0.02427429, 0.9983143, -1.275512, -0.6372926, -0.8234634, 20.64706
2.279936, -0.04146484, 0.02766785, 0.9950098, 0.248878, 0.3992927, 1.249707, 20.55294
2.299938, -0.03780273, 0.03009888, 0.9951788, -0.5438049, 0.6431952, 1.49361, 20.64706
2.319937, -0.04170898, 0.01839966, 1.014893, -0.6352683, -0.3933902, -0.732, 20.64706
2.339933, -0.0346289, 0.02936462, 1.006391, -0.7572196, -0.2104634, -0.7929757, 20.55294
2.359935, -0.03267578, 0.02473511, 0.9939453, -0.5133171, 0.7956342, -0.06126827, 20.64706
2.37994, -0.04488281, 0.02329163, 1.001507, -0.6047806, 0.6431952, 0.6094635, 20.6
2.40514, -0.04561523, 0.03232239, 0.9995414, -1.001122, 0.5822196, 0.2131219, 20.55294
2.419954, -0.04683594, 0.014505, 0.9942608, -1.062098, -0.1494877, -0.732, 20.6
2.439938, -0.04585938, 0.02060242, 0.988156, 0.4622927, -0.7897317, -0.6405365, 20.6
2.459935, -0.05049805, 0.03766174, 0.9847763, 0.1269268, -0.4848536, 0.7009268, 20.64706
2.47994, -0.03804687, 0.03009338, 1.001783, -1.062098, -0.1494877, 2.011902, 20.55294
2.499939, -0.0412207, 0.02888062, 1.003977, -1.275512, 0.1249025, 2.133854, 20.55294
2.519934, -0.02657226, 0.02890503, 1.005399, -1.092585, 0.5517318, 0.9448293, 20.64706
2.539935, -0.03096679, 0.01840881, 1.011958, 0.2793658, -0.08851218, -0.2441951, 20.64706
2.559934, -0.04292969, 0.01988281, 1.02098, 0.06595123, 0.1553903, -0.0002926588, 20.64706
2.579938, -0.03926758, 0.01863708, 1.008121, 0.2793658, 1.466366, 1.798488, 20.64706
2.605354, -0.04268555, 0.02401489, 0.9969017, -0.1169757, 1.801732, 1.676537, 20.6
2.619955, -0.05953125, 0.01961731, 0.9996268, 0.8891219, 0.03343904, 0.6399512, 20.69412
2.639946, -0.04195313, 0.04059204, 0.9988956, 0.3708293, 0.7041708, 0.8533659, 20.6
2.659938, -0.0255957, 0.03106934, 0.9766993, -1.153561, 1.83222, 0.2740976, 20.6
2.679936, -0.04146484, 0.008424071, 1.003671, -1.397464, 0.3688049, -0.2137073, 20.6
2.69994, -0.03804687, 0.01645813, 1.003271, 0.5537561, 0.5517318, 0.1216585, 20.6
2.719942, -0.04292969, 0.02450623, 1.004434, 0.9196098, 0.521244, -0.274683, 20.64706
2.739934, -0.04268555, 0.04105957, 0.9903393, 1.102537, 1.009049, -0.4576097, 20.55294
2.759936, -0.05025391, 0.0481366, 0.9891172, -1.306, 1.222463, 0.2740976, 20.6
2.779936, -0.04415039, 0.0298584, 0.9998302, -2.251122, 1.923683, 0.7009268, 20.64706
2.805545, -0.04537109, 0.01792786, 0.9971204, -1.245024, 0.521244, 0.3045854, 20.6
2.819951, -0.03707031, 0.01256165, 0.9929649, -0.2999024, 0.2163659, -0.5490732, 20.6
2.839936, -0.05171875, 0.02839478, 0.9942022, 0.6757073, 1.496854, 0.2131219, 20.6
2.85994, -0.05342773, 0.01790344, 0.9915816, 0.1269268, 1.496854, 0.6094635, 20.50588
2.879938, -0.05513672, 0.01693603, 0.9939682, -0.3913659, 0.06392682, 0.2740976, 20.6
2.899938, -0.04805664, 0.008172606, 0.9930337, 0.03546345, -0.3324146, -0.0002926588, 20.69412
2.919931, -0.05220703, 0.02135925, 0.9959685, 0.9805853, 0.2163659, 1.005805, 20.69412
2.939935, -0.05000977, 0.02935486, 0.9983564, -0.2694147, 0.3383171, 0.9448293, 20.69412
2.959939, -0.04341797, 0.02960571, 0.9891236, -1.336488, -0.1494877, 0.2436098, 20.50588
2.97994, -0.04488281, 0.03083313, 0.9991322, -2.464537, -0.6068048, -0.06126827, 20.6
3.005675, -0.04073242, 0.02329224, 0.9983042, -1.824293, 0.3078293, 0.8838537, 20.6
3.019954, -0.04170898, 0.0215625, 0.9903443, -0.7572196, 1.801732, 1.646049, 20.64706
3.039949, -0.04537109, 0.01110046, 1.004178, -1.001122, 1.283439, 0.8228781, 20.55294
3.059937, -0.04952148, 0.01549622, 0.9937407, -0.4523415, 0.9480732, 0.6399512, 20.55294
3.07994, -0.05123047, 0.02838989, 0.9793874, -0.6962439, 1.131, 1.219219, 20.64706
3.09994, -0.05098633, 0.03205139, 0.9823209, -1.062098, 0.7956342, 1.554585, 20.64706
3.119935, -0.04854492, 0.0244989, 0.9883785, -1.915756, -0.1799756, 0.6094635, 20.64706
3.139933, -0.0634375, 0.01062744, 0.9971242, -1.336488, -1.247049, 0.670439, 20.69412
3.159936, -0.04097656, 0.006228637, 1.000536, 0.1574147, 0.002951264, 1.707024, 20.69412
3.179935, -0.04415039, 0.02061035, 1.00006, 1.590341, 0.6127074, 1.585073, 20.6
3.205838, -0.0465918, 0.0298468, 0.9820231, 1.681805, 0.1249025, 1.280195, 20.64706
3.219951, -0.04415039, 0.03812439, 0.9927959, -0.2389269, 0.2773415, 1.097268, 20.55294
3.23994, -0.0478125, 0.02815002, 0.9927641, -1.366976, -0.6982683, -0.884439, 20.64706
3.259936, -0.05733398, 0.01160034, 1.003694, -1.062098, -1.978756, -1.219805, 20.64706
3.279936, -0.05025391, 0.01475281, 0.9959073, -0.4218536, -0.4543658, 1.889951, 20.64706
3.299936, -0.04390625, 0.006713256, 1.006068, 1.041561, 0.8870975, 2.682634, 20.64706
3.319932, -0.03829101, 0.01452515, 1.017057, 1.407415, -0.8202195, 0.03019512, 20.64706
3.339937, -0.03414062, 0.03473022, 1.000325, 0.3708293, 0.4602683, 0.03019512, 20.64706
3.359938, -0.04805664, 0.02473328, 0.995414, -0.7572196, 0.4907561, 0.6094635, 20.64706
3.379934, -0.04634766, 0.01720642, 1.006099, -0.6962439, 0.1553903, 2.04239, 20.64706
3.406018, -0.03438476, 0.01013733, 1.002392, 1.681805, 0.7956342, 2.103366, 20.6
3.419977, -0.03511719, 0.01133667, 1.01072, 1.773268, 0.9480732, 1.981415, 20.50588
3.439946, -0.03658203, 0.02156494, 1.00882, 1.651317, 1.344415, 1.066781, 20.6
3.459941, -0.03707031, 0.03448242, 0.9939007, -0.208439, 0.5822196, 0.5789756, 20.6
3.47994, -0.05098633, 0.03324829, 0.9935246, -2.129171, 0.4297805, 1.402146, 20.6
3.499936, -0.04268555, 0.0181781, 1.002008, -1.001122, 1.222463, 1.524098, 20.74118
3.519936, -0.03682617, 0.005023804, 1.013391, 0.7976585, 0.3688049, -0.3966341, 20.69412
3.539932, -0.03975586, 0.01499512, 0.9951838, 1.956195, 0.978561, -0.732, 20.64706
3.559932, -0.04683594, 0.03207153, 0.9981786, 0.248878, 1.649293, 1.188732, 20.55294
3.579937, -0.05660156, 0.03496521, 0.9971255, -1.397464, 1.100512, 1.49361, 20.74118
3.606225, -0.04878906, 0.01987061, 0.995231, -0.9401464, -0.1799756, 0.2131219, 20.6
3.620254, -0.04878906, 0.01135071, 1.000101, 0.096439, -0.3933902, -0.4576097, 20.64706
3.63994, -0.05098633, 0.01572083, 0.9922682, 1.651317, -0.1799756, 0.06068292, 20.69412
3.659936, -0.04634766, 0.03400391, 0.9898522, 0.2183902, 0.9175854, 1.646049, 20.6
3.679942, -0.04610352, 0.03496704, 0.9932358, -1.153561, 1.740756, 1.889951, 20.69412
3.699942, -0.04537109, 0.02036438, 1.00299, -1.001122, 0.03343904, -0.9149269, 20.6
3.719936, -0.05367188, 0.0274292, 0.9906293, -0.1474634, 0.1249025, -0.9454146, 20.69412
3.739937, -0.05757813, 0.01913513, 0.9807999, -0.3913659, 0.7956342, 1.676537, 20.6
3.759938, -0.04976563, 0.01621155, 0.992005, -0.1169757, 1.283439, 1.798488, 20.69412
3.779937, -0.04585938, 0.01864319, 0.9922618, 0.1269268, 0.3688049, -0.3661463, 20.6
3.806367, -0.055625, 0.03570251, 0.9959634, 0.096439, -0.3933902, 0.03019512, 20.64706
3.820349, -0.05635742, 0.04081116, 0.9744956, -0.3303902, 0.6431952, 0.670439, 20.50588
3.83994, -0.05293945, 0.02889648, 0.986855, -1.336488, 0.1249025, -0.579561, 20.64706
3.859935, -0.06026367, 0.02328735, 1.003694, -1.549902, 0.4297805, -0.1222439, 20.6
3.87994, -0.0544043, 0.007194824, 0.9959213, -0.2694147, 0.7651464, 1.249707, 20.55294
3.899938, -0.05513672, 0.01598633, 0.9910118, 0.5232683, 1.191976, 1.707024, 20.55294
3.919934, -0.06661133, 0.01328735, 0.9883644, 1.194, -0.271439, -0.09175611, 20.6
3.93994, -0.06441406, 0.02329163, 0.9906089, 1.74278, -1.460464, -1.951512, 20.69412
3.959938, -0.06368164, 0.03181763, 0.9823133, 0.8281464, -0.9726586, -0.1527317, 20.6
3.97994, -0.05513672, 0.02595825, 0.9901461, 0.4927805, 0.06392682, 1.859464, 20.6
4.006534, -0.04585938, 0.039823, 0.9678082, -0.08648777, -2.131195, 0.1826341, 20.64706
4.020502, -0.0634375, 0.02764587, 0.9850128, 0.4318049, -2.405585, -0.6100488, 20.55294
4.039944, -0.04366211, 0.03008178, 0.9967112, -1.397464, -1.826317, -0.6100488, 20.55294
4.059937, -0.03926758, 0.004520874, 1.01491, -1.397464, 0.3078293, 2.347268, 20.64706
4.079942, -0.03389648, -0.005946045, 1.00105, -0.6962439, 0.03343904, 2.04239, 20.55294
4.099941, -0.04488281, -0.006906738, 1.010956, 0.1879025, -1.521439, 0.2436098, 20.55294
4.119941, -0.05342773, 0.01157837, 0.9891364, 0.6452195, -0.5458293, 1.524098, 20.64706
4.13993, -0.04512695, 0.006947021, 1.013911, -0.5133171, 0.4602683, 1.950927, 20.74118
4.159936, -0.05049805, 0.001608276, 1.006127, 0.5537561, -0.271439, 1.676537, 20.6
4.179936, -0.04537109, 0.00817932, 1.005147, 1.346439, -0.4848536, 2.286293, 20.69412
4.206703, -0.04146484, 0.01303284, 1.015876, 2.200098, 0.4602683, 3.810683, 20.69412
4.220618, -0.04195313, 0.01522339, 1.016336, 2.047658, -0.4848536, 1.402146, 20.6
4.239941, -0.02803711, 0.02888123, 1.01192, 1.864732, -0.3324146, 0.4265366, 20.6
4.25994, -0.03194336, 0.03229187, 1.004221, 1.590341, -0.08851218, 0.7314147, 20.6
4.279937, -0.02413086, 0.02817627, 1.002497, 2.596439, 2.228561, 1.646049, 20.50588
4.299939, -0.02706054, 0.03326905, 1.004189, 1.529366, 2.350512, 2.133854, 20.6
4.319935, -0.03584961, 0.04520691, 0.996163, -0.6047806, 2.868805, 1.158244, 20.69412
4.339932, -0.03755859, 0.03717224, 1.003993, -2.068195, 2.502951, -0.274683, 20.64706
4.35994, -0.04610352, 0.02084473, 0.9978847, -0.6962439, 3.35661, -0.1832195, 20.64706
4.379936, -0.06734375, 0.008421631, 0.9966869, 2.108634, 2.045634, 1.219219, 20.64706
4.406828, -0.06124023, 0.03594971, 1.006909, 1.346439, 0.521244, 1.463122, 20.6
4.420722, -0.04, 0.03352295, 0.9990773, 0.4927805, 1.161488, 0.9143414, 20.69412
4.439943, -0.04561523, 0.04349426, 0.9925238, 0.3708293, 1.771244, 0.2740976, 20.6
4.459937, -0.04756836, 0.04177856, 0.9910666, -1.001122, 1.557829, 1.005805, 20.64706
4.479936, -0.04366211, 0.02646484, 1.004735, -0.6047806, 1.527341, 2.133854, 20.6
4.49994, -0.03877929, 0.01963501, 1.009977, 0.8586341, 1.588317, 1.646049, 20.50588
4.519935, -0.04219727, 0.02741455, 1.012462, 1.163512, 0.4907561, -0.8539513, 20.64706
4.539936, -0.06783203, 0.04373413, 0.9911278, 0.7366829, 0.06392682, -0.884439, 20.64706
4.559939, -0.06490234, 0.06418701, 0.9789246, -1.976732, 0.826122, 1.066781, 20.74118
4.579939, -0.06001953, 0.03935364, 0.9934749, -3.562098, 0.09441471, 0.365561, 20.64706
4.607011, -0.05538086, 0.01206848, 0.9998608, 0.8586341, -0.5153414, -0.9149269, 20.64706
4.621069, -0.04439453, 0.03180847, 0.9961642, 1.376927, -0.02753651, 0.6094635, 20.69412
4.639941, -0.04024414, 0.028396, 1.005622, 0.1879025, 0.3992927, 1.127756, 20.64706
4.65994, -0.0490332, 0.03227051, 0.9895903, -0.6962439, 0.2468537, -0.3051707, 20.55294
4.679941, -0.05538086, 0.04519104, 1.000577, -1.702342, 0.3992927, -0.5185853, 20.6
4.699939, -0.04952148, 0.03863464, 1.002491, -3.714537, 0.8870975, -0.4880976, 20.69412
4.71993, -0.05269531, 0.003068237, 1.004855, -1.946244, -0.3019269, -0.4880976, 20.69412
4.739937, -0.04463867, -0.0006042486, 1.024156, -0.208439, -0.8507072, -0.274683, 20.6
4.759939, -0.03487304, 0.02571961, 1.006166, -1.519415, 0.6431952, 0.9753171, 20.69412
4.779937, -0.03584961, 0.01476257, 1.005436, -1.85478, 2.807829, 0.9753171, 20.69412
4.807184, -0.05245117, 0.01500732, 0.9963778, -1.793805, 1.67978, -2.591756, 20.64706
4.821147, -0.07320313, 0.01061035, 0.9981352, -0.8486829, 1.039537, -1.890537, 20.64706
4.839942, -0.07271484, 0.01866028, 1.007391, -0.208439, 1.618805, 0.4265366, 20.69412
4.859934, -0.07393555, 0.02548157, 1.000552, 0.4927805, 1.496854, 1.371659, 20.6
4.879938, -0.07125, 0.03302795, 0.9886188, 0.1269268, 1.191976, 0.8838537, 20.64706
4.899936, -0.06636719, 0.03813965, 1.003983, -1.062098, 0.2773415, -0.0002926588, 20.64706
4.919936, -0.07686523, 0.02693909, 0.9890829, -0.02551222, -0.8202195, -0.5185853, 20.64706
4.939938, -0.04683594, 0.04398804, 1.003685, 0.096439, 1.131, 1.158244, 20.69412
4.959934, -0.04366211, 0.03789306, 0.9936961, -1.184049, 1.40539, 0.3045854, 20.64706
4.979939, -0.04512695, 0.03592956, 1.018865, -2.220634, 1.344415, -1.372244, 20.64706
5.007315, -0.0568457, 0.02570862, 0.9881764, -3.135268, 2.411488, -1.738098, 20.6
5.021316, -0.05098633, 0.01744141, 0.9828397, -2.982829, 2.015146, -1.494195, 20.64706
5.039942, -0.07173828, 0.01913635, 0.9628559, -2.769415, 1.801732, -1.250293, 20.64706
5.059938, -0.07393555, 0.009384765, 0.9918169, -3.745024, 0.6736829, -1.524683, 20.64706
5.079933, -0.08272461, 0.01233093, 0.9813825, -2.434049, 1.222463, -0.1222439, 20.64706
5.099943, -0.08736328, 0.008419188, 0.9777421, -3.043805, 1.252951, 0.3960488, 20.74118
5.119939, -0.09419922, -0.005715332, 0.9665537, -1.184049, -1.338512, -1.189317, 20.74118
5.139935, -0.09981445, 0.01084961, 0.9750756, -0.02551222, -2.527537, -0.7624878, 20.69412
5.159936, -0.08711914, 0.01380127, 1.005194, -1.641366, -2.954366, -0.1832195, 20.64706
5.179938, -0.07857422, 0.008920897, 1.003712, -0.6047806, -3.32022, -0.03078049, 20.6
5.207693, -0.05611328, 0.01184021, 0.9937534, -0.9706343, -1.978756, 0.5484878, 20.69412
5.221697, -0.0490332, 0.008648682, 1.001266, -0.9706343, -1.582415, 0.518, 20.6
5.239942, -0.0544043, 0.00500061, 1.015821, 0.1574147, -2.314122, 0.1826341, 20.6
5.259942, -0.04585938, 0.01841492, 1.008547, 1.681805, -2.832415, -0.3661463, 20.55294
5.279942, -0.03511719, 0.01864868, 1.018989, 1.011073, -3.198268, -0.884439, 20.69412
5.299939, -0.02291016, 0.01132751, 1.027462, 1.011073, -2.771439, -1.00639, 20.6
5.319934, -0.01900391, 0.02328613, 1.024857, 1.986683, -1.490951, -2.012488, 20.6
5.339936, -0.01363281, 0.03424561, 1.008353, -1.184049, 0.3992927, -1.70761, 20.6
5.359933, -0.02193359, 0.008179931, 1.016123, -1.123073, 1.100512, -1.677122, 20.74118
5.379939, -0.01900391, 0.02282104, 1.00419, 0.7366829, 1.984659, -4.238098, 20.74118
5.407792, -0.04146484, 0.02694885, 0.9862144, -0.6657561, 0.3992927, -5.000293, 20.69412
5.42174, -0.05953125, 0.02547058, 0.9942532, -1.976732, 1.801732, -2.500293, 20.6
5.439948, -0.06514648, 0.01012817, 0.9864088, -3.348683, 3.326122, -0.4576097, 20.6
5.459941, -0.06587891, -0.01006897, 0.9995414, -1.702342, 2.472464, -0.9149269, 20.69412
5.479938, -0.06978516, 0.004528197, 0.9796748, -0.3303902, 2.137098, -0.7929757, 20.69412
5.499932, -0.07417969, 0.01645874, 0.9767387, -0.6657561, 1.771244, -0.3661463, 20.6
5.51993, -0.07466797, 0.02545655, 0.960482, -1.824293, 0.521244, -0.1222439, 20.6
5.539936, -0.08052734, 0.03228271, 0.9339828, -1.763317, -0.9421706, 1.676537, 20.69412
5.559939, -0.07222656, 0.06104064, 0.9009798, 4.456195, -1.369, 6.707025, 20.69412
5.57994, -0.07149414, 0.115094, 0.8849647, 14.73059, -3.228756, 11.37166, 20.69412
5.607927, 0.05790039, 0.3216498, 0.8567183, 29.42571, -3.472659, -0.4576097, 20.69412
5.621899, 0.01517578, 0.3856384, 0.8472796, 26.37693, -8.990952, -8.049074, 20.78824
5.639942, -0.06148438, 0.3583551, 0.8310534, 25.79766, -13.869, -15.67102, 20.64706
5.659935, -0.04561523, 0.4260651, 0.8348781, 29.51717, -16.39949, -15.94542, 20.64706
5.679935, -0.03951172, 0.4536316, 0.9133099, 33.694, -15.75924, -14.84785, 20.55294
5.699938, -0.05318359, 0.3990637, 1.039926, 43.93791, -17.49705, -16.12834, 20.64706
5.719937, -0.04708008, 0.3518005, 1.063914, 66.40742, -8.411684, -12.37834, 20.64706
5.739937, 0.01175781, 0.3335522, 1.174442, 76.62084, -5.759244, -21.43322, 20.64706
5.759934, 0.06131836, 0.36638, 1.15108, 72.35254, -27.34461, -38.38444, 20.74118
5.779943, 0.07230469, 0.4253217, 1.135087, 44.54766, -42.31412, -43.99419, 20.64706
5.808074, 0.09061523, 0.2222937, 1.197503, 19.57815, -36.73486, -32.9881, 20.55294
5.822008, 0.09208008, 0.09417908, 1.261866, 11.62083, -29.66168, -30.61005, 20.55294
5.839946, 0.1348047, 0.04250427, 1.121753, 14.27327, -7.131196, -22.62224, 20.6
5.859941, 0.1418848, 0.03302002, 1.087327, 13.32815, 3.539537, -20.06127, 20.69412
5.879939, 0.09183594, 0.03570984, 1.002481, 12.50498, 3.295634, -20.70151, 20.6
5.89994, 0.09037109, 0.008688965, 1.000353, 4.578146, 0.3383171, -26.40273, 20.74118
5.919936, 0.08475586, -0.01663391, 0.9139613, -1.915756, 1.466366, -38.75029, 20.64706
5.93993, 0.07523438, -0.04391724, 0.9097523, -17.3121, 2.563927, -41.40274, 20.55294
5.959934, -0.009970702, -0.08555054, 0.8505566, -18.53161, 7.167585, -30.79298, 20.55294
5.979936, -0.07613281, -0.1223621, 0.7908913, -7.251122, 9.484659, -10.2442, 20.74118
6.008302, -0.04219727, -0.03712585, 0.8176091, -5.33039, 17.35051, -1.494195, 20.64706
6.0223, -0.03926758, -0.02128418, 0.8511923, -14.29381, 13.75295, -9.939318, 20.64706
6.039939, -0.0004492178, -0.02495789, 0.8636167, -26.91576, 12.07612, -20.85395, 20.6
6.059944, -0.03926758, -0.009364625, 0.8204272, -43.71454, 11.40539, -34.02468, 20.6
6.079938, -0.1034766, -0.08549255, 0.8870803, -66.61088, 5.033439, -42.77468, 20.64706
6.099934, -0.1952734, -0.2126764, 0.8027408, -65.54381, 13.08222, -15.82346, 20.69412
6.119936, -0.2165137, -0.2597034, 0.9126131, -60.11698, 1.67978, -0.5490732, 20.64706
6.139938, -0.2455664, -0.2462958, 0.862032, -52.556, -12.03973, 5.121659, 20.74118
6.15994, -0.1305762, -0.243399, 0.9124073, -47.12917, -14.02144, 5.822878, 20.64706
6.179934, -0.07149414, -0.2506714, 0.9726011, -44.75112, -15.27144, -2.317366, 20.64706
6.208494, -0.07076172, -0.3208319, 1.015339, -38.74503, -28.22876, -6.311268, 20.69412
6.222496, -0.1427832, -0.3790717, 1.043239, -33.28771, -34.93607, -5.518585, 20.69412
6.239943, -0.0856543, -0.324978, 1.00955, -21.61088, -26.85681, 9.786292, 20.6
6.259932, 0.008095704, -0.3337286, 1.035968, -16.18405, -19.57022, 26.61556, 20.6
6.279935, 0.1113672, -0.3050085, 0.9599606, -17.03771, -12.22266, 37.31678, 20.6
6.299936, 0.1645899, -0.3171692, 0.8957132, -24.87307, -12.3751, 23.13995, 20.69412
6.319941, 0.2080469, -0.295495, 0.8431802, -35.84868, -18.16778, 1.707024, 20.69412
6.339937, 0.1626367, -0.2321661, 0.875663, -53.83649, -28.71656, -1.555171, 20.6
6.359932, 0.02835938, -0.3162061, 0.9582618, -65.23893, -24.41778, 20.88385, 20.69412
6.379939, 0.03495117, -0.38242, 1.081342, -61.64137, -9.539732, 44.268, 20.6
6.408597, 0.07230469, -0.47815, 1.184883, -42.64747, 0.9480732, 43.41434, 20.64706
6.422645, 0.1316309, -0.4715777, 1.262281, -33.92795, -4.539732, 40.09118, 20.6
6.43994, 0.09500977, -0.4460358, 1.22402, -28.13527, -11.33851, 37.04239, 20.55294
6.459942, 0.1748438, -0.3563776, 1.212107, -31.51942, -11.06412, 43.87167, 20.55294
6.479933, 0.1243066, -0.2945282, 1.293632, -36.97674, -12.34461, 54.20703, 20.55294
6.499939, 0.1455469, -0.3495435, 1.363019, -30.54381, -6.216561, 66.15824, 20.6
6.519937, 0.1269922, -0.3950989, 1.485399, -14.65966, -3.16778, 77.13385, 20.64706
6.539939, 0.1450586, -0.2682214, 1.396652, 15.61473, 8.631001, 78.68873, 20.64706
6.559934, 0.08036133, -0.2390222, 1.416043, 24.7001, -6.795829, 66.55459, 20.69412
6.579938, 0.1118555, -0.1469427, 1.394724, 35.03546, -15.17998, 64.75581, 20.50588
6.60884, 0.2388086, 0.005968018, 1.317232, 39.73059, -10.17998, 57.25581, 20.6
6.622899, 0.2778711, 0.04834778, 1.280647, 42.26108, 5.85661, 55.63995, 20.69412
6.63994, 0.2947168, 0.195426, 1.191116, 36.77327, 35.79564, 61.82898, 20.78824
6.659939, 0.213418, 0.1516296, 1.152903, 18.08424, 40.06393, 59.35947, 20.6
6.679938, 0.1067285, 0.1481976, 0.9881777, 24.88303, 45.24686, 59.72532, 20.55294
6.699934, 0.05545898, 0.2699432, 0.8413214, 29.48668, 36.46637, 58.56678, 20.69412
6.719933, 0.02152344, 0.3103808, 0.7285448, 42.04766, 16.22246, 49.54239, 20.69412
6.739936, 0.1228418, 0.3975311, 0.6697979, 27.59644, 4.850513, 37.25581, 20.64706
6.759935, 0.2663965, 0.4781982, 0.6469889, 2.108634, 20.00295, 38.38386, 20.55294
6.779937, 0.3196192, 0.4107843, 0.6486035, -17.76942, 37.80783, 41.98142, 20.55294
6.808916, 0.07206055, 0.3586035, 0.5296616, 20.67571, 48.35661, 34.268, 20.6
6.82296, -0.0165625, 0.4484326, 0.4659024, 33.4501, 38.60051, 20.91434, 20.6
6.839942, 0.01834961, 0.6013775, 0.398197, 30.15742, 40.06393, 12.0119, 20.6
6.859945, 0.03080078, 0.6649988, 0.4305505, -9.659658, 38.72247, -1.463707, 20.6
6.879934, -0.02071289, 0.5232898, 0.4661677, -51.36698, 33.81393, -2.378342, 20.6
6.899937, -0.08516602, 0.269281, 0.5949836, -63.89746, 37.381, 8.444829, 20.69412
6.919936, -0.01729492, 0.1066095, 0.69766, -38.37917, 46.98466, 29.29849, 20.6
6.939934, -0.02291016, 0.1279596, 0.6468627, -7.952341, 51.07003, 27.95703, 20.69412
6.959938, -0.1613379, 0.1470227, 0.8182338, 0.004975557, 28.53954, -9.055171, 20.6
6.979937, -0.2909765, 0.1146478, 0.761057, 22.74888, -5.058024, -47.95761, 20.55294
7.009135, -0.3964453, 0.08511536, 0.7290547, 47.13912, -41.97875, -47.89663, 20.69412
7.023208, -0.3168555, 0.07514587, 0.8577649, 38.78547, -46.46047, -45.64054, 20.69412
7.039946, -0.3271094, 0.0238092, 1.061341, 18.02327, -60.97266, -45.9759, 20.69412
7.05994, -0.3744726, -0.1086804, 1.06171, 25.52327, -41.76534, -20.4881, 20.6
7.079936, -0.3727637, -0.1433185, 1.079342, 64.66961, -43.59461, -8.811269, 20.6
7.099934, -0.3034277, 0.1065039, 0.9812785, 103.5111, -68.83852, -14.14664, 20.69412
7.119937, -0.1073828, 0.2821344, 1.133334, 104.6696, -108.6556, -20.88444, 20.6
7.139934, 0.01419922, 0.2855707, 1.349506, 70.67571, -135.7592, -37.13444, 20.6
7.159936, 0.2676172, 0.2363763, 1.346244, 57.9623, -82.52754, -35.82346, 20.6
7.179938, 0.3789453, 0.2142108, 1.303062, 64.36473, -48.869, -30.18322, 20.69412
7.20927, 0.2510156, 0.3902722, 1.222512, 53.93791, -34.23486, -32.34786, 20.69412
7.223341, 0.2515039, 0.3664392, 1.407679, 26.13303, -31.09461, -35.57956, 20.64706
7.239939, 0.1843653, 0.3403589, 1.354945, 4.39522, -11.64339, -20.70151, 20.64706
7.259939, 0.1892481, 0.3053235, 1.208492, -8.10478, 30.79564, 7.957025, 20.64706
7.279939, 0.1711817, 0.3096796, 1.079921, -9.873074, 53.84442, 6.402147, 20.64706
7.299937, 0.1152734, 0.1896234, 1.16739, -16.39746, 35.76515, -19.11615, 20.64706
7.319937, 0.02274414, 0.1150891, 1.223534, -6.85478, 3.35661, -50.39663, 20.55294
7.339931, 0.03934571, 0.1469958, 1.2047, -1.001122, -18.07632, -66.46371, 20.64706
7.359937, 0.07816406, 0.03157288, 1.350999, -18.19624, -16.8568, -65.42713, 20.6
7.379938, 0.1782617, -0.1128296, 1.48934, -26.00112, 30.79564, -38.96371, 20.69412
7.409465, 0.06522461, -0.3295764, 1.431091, -38.0438, 83.90539, -3.719805, 20.55294
7.423488, -0.02461914, -0.3368866, 1.276179, -29.59868, 95.79563, 7.774098, 20.6
7.439937, -0.1347265, -0.3863306, 1.136051, -0.6962439, 69.69808, -6.372244, 20.55294
7.459936, -0.2160254, -0.2938153, 0.9680223, 39.12083, 9.972464, -39.57346, 20.64706
7.479934, -0.06807617, -0.05881958, 0.971884, 33.35864, -2.100707, -68.232, 20.64706
7.499936, 0.002236329, -0.01177246, 1.02836, -2.738927, 11.25295, -88.11006, 20.64706
7.519936, 0.005410157, -0.1330322, 1.010008, -46.61088, 26.80173, -73.17103, 20.64706
7.539935, -0.1073828, -0.2806525, 0.8437449, -60.42186, 42.50295, -36.18932, 20.6
7.559936, -0.1635351, -0.2616364, 0.750596, -48.86698, 38.23466, -14.69542, 20.6
7.579936, -0.1798926, -0.2226886, 0.7089045, -32.37307, 8.539537, -23.87224, 20.64706
7.609622, -0.1410742, -0.2386817, 0.7404057, 3.450098, -78.71657, -86.89054, 20.64706
7.62378, -0.08248047, -0.1778802, 0.7068876, 5.950098, -98.59462, -102.7747, 20.55294
7.639946, -0.01485351, -0.2078271, 0.7189876, -3.806, -101.369, -93.50639, 20.6
7.659937, 0.1396875, -0.1554651, 0.624781, -16.73283, -41.39949, -45.61005, 20.64706
7.679938, 0.164834, -0.2202502, 0.664685, -38.40966, 5.124903, -0.3966341, 20.64706
7.699937, 0.09305664, -0.339328, 0.7289476, -31.73283, 14.881, 7.164342, 20.64706
7.71994, 0.0356836, -0.367843, 0.7465169, -0.7572196, -11.39949, -12.07346, 20.64706
7.739936, 0.04764648, -0.2908813, 0.6901872, 32.38303, -32.89339, -38.04907, 20.55294
7.759938, 0.05790039, -0.1160248, 0.6922787, 35.4318, -34.20437, -41.06737, 20.64706
7.779935, 0.06083008, -0.172782, 0.7407684, 13.11473, -15.45436, -18.29298, 20.55294
7.809776, 0.00272461, -0.2175488, 0.7432003, -16.0621, 21.49686, 32.28629, 20.64706
7.823877, -0.0724707, -0.2937805, 0.8665463, -23.98893, 17.59442, 42.19483, 20.6
7.839945, -0.05123047, -0.361264, 0.9012176, -8.196244, 17.35051, 42.16434, 20.6
7.859936, -0.06514648, -0.3775617, 1.01949, 23.29766, -9.204367, 22.80459, 20.6
7.879936, -0.09664063, -0.3037915, 1.022207, 29.18181, -47.1312, 10.518, 20.6
7.899933, -0.0412207, -0.2414526, 0.9893301, 33.60254, -45.39339, 24.23751, 20.6
7.919934, -0.02583984, -0.191532, 1.101508, 24.66961, -28.35071, 44.57288, 20.6
7.939932, 0.06717773, -0.1688452, 1.107962, 9.700098, -13.04583, 51.31069, 20.6
7.959939, 0.1287012, -0.1927032, 1.406207, -8.165756, -2.283634, 53.32288, 20.6
7.979934, 0.04984375, -0.3256629, 1.521055, -10.26942, -6.490952, 47.31678, 20.6
8.009957, 0.117959, -0.2256305, 1.521611, 33.41961, 15.42978, 51.88995, 20.6
8.024023, 0.0681543, -0.1472046, 1.404567, 41.98668, 24.05783, 60.48751, 20.64706
8.039944, -0.02364258, -0.09506042, 1.433416, 47.77936, 9.088318, 61.21922, 20.64706
8.059941, -0.01900391, -0.1678705, 1.609663, 81.13303, -24.14339, 47.07288, 20.55294
8.079935, 0.05521484, -0.1713696, 1.481872, 144.5172, -42.52754, 39.54239, 20.6
8.099937, 0.1265039, 0.1698181, 1.222052, 149.9745, -7.466561, 62.71312, 20.55294
8.119932, 0.2048731, 0.4348255, 1.341542, 90.06596, 31.16149, 88.59727, 20.64706
8.139938, 0.2246485, 0.4867151, 1.355152, 33.75498, 60.70417, 90.94483, 20.6
8.159934, 0.08939453, 0.4730774, 1.206173, -2.068195, 51.52734, 76.37166, 20.69412
8.179931, -0.01363281, 0.5042231, 1.018124, -35.48283, 26.64929, 64.69483, 20.6
8.210058, 0.069375, 0.4107452, 1.064401, -50.63527, 11.77124, 39.54239, 20.6
8.224121, 0.1157617, 0.3654663, 1.076835, -51.61088, 29.78954, 45.91434, 20.64706
8.239944, 0.1453027, 0.2933643, 1.119661, -55.11698, 54.97247, 66.55459, 20.64706
8.259937, 0.06766602, 0.2894336, 1.026535, -52.15966, 55.67369, 82.16434, 20.64706
8.279934, 0.04496094, 0.3498401, 0.9771761, -49.93405, 36.16149, 74.29849, 20.64706
8.299942, 0.255166, 0.5327448, 0.9005973, -46.39747, -0.4238781, 61.37167, 20.55294
8.319939, 0.2685938, 0.8634234, 0.5675461, -34.50722, 24.60661, 58.018, 20.74118
8.33994, 0.5461816, 0.9618426, 0.842041, -71.79381, 80.8871, 60.39606, 20.64706
8.359937, 0.3596582, 0.7874847, 0.9031542, -152.617, 81.55784, 41.18874, 20.64706
8.379937, 0.1687402, 0.4736468, 0.8569439, -196.1536, 112.6859, 40.54849, 20.64706
8.41021, -0.06587891, 0.08615662, 0.9625135, -160.0255, 94.91149, 16.03629, 20.6
8.424447, 0.0007714853, 0.09487305, 1.052133, -111.9158, 82.83832, 4.999708, 20.64706
8.439942, -0.002158202, 0.1555023, 0.8383407, -63.16576, 81.25296, -2.561268, 20.6
8.459938, -0.09566406, 0.2047204, 0.7382785, -41.54991, 65.15539, -16.25029, 20.64706
8.479938, -0.1156836, 0.2619312, 0.6318254, -65.69624, 78.57002, 5.609464, 20.55294
8.499938, -0.1566992, 0.2035107, 0.7159705, -129.1414, 103.4176, 41.70703, 20.6
8.519941, -0.2714453, -0.07431885, 0.8868209, -160.1779, 91.31392, 48.38386, 20.55294
8.539931, -0.2792578, -0.3843677, 1.088443, -100.9401, 45.55173, 18.17044, 20.64706
8.559933, -0.2680273, -0.4299402, 0.7592772, 38.63303, 9.271244, -29.75639, 20.64706
8.579938, -0.2921972, -0.1179999, 0.5481091, 146.9257, -22.95437, -57.62224, 20.50588
8.610499, -0.3058691, 0.3868518, 0.1777178, 142.2001, -5.119, -29.11615, 20.55294
8.624587, -0.149375, 0.4616345, 0.3514482, 75.79766, 12.22856, -6.189317, 20.69412
8.63994, -0.08223633, 0.3055707, 0.6945448, -6.184049, 11.31393, -8.353951, 20.6
8.659942, -0.09639648, 0.06836975, 0.7533209, -42.64747, 1.954171, -23.41493, 20.50588
8.67994, -0.2196875, -0.09337646, 0.7333715, 10.34034, -26.30803, -49.60395, 20.6
8.699932, -0.2277441, 0.05005126, 0.5709565, 61.10254, -45.05803, -61.82956, 20.6
8.719935, -0.1542578, 0.1628186, 0.4917859, 92.87084, -56.97875, -61.34176, 20.64706
8.739934, -0.00533203, 0.2904059, 0.3886047, 121.3464, -56.1251, -50.88444, 20.6
8.75994, 0.1738672, 0.419021, 0.5399799, 102.6879, -48.65559, -44.63444, 20.69412
8.779938, 0.09085938, 0.2179407, 0.9350983, 13.84644, -45.39339, -49.2381, 20.64706
8.810612, -0.2087012, -0.1077313, 1.086247, -39.35478, -45.30193, -42.40883, 20.74118
8.824884, -0.2416601, -0.1408722, 1.193714, -12.34259, -66.1556, -34.9698, 20.6
8.839939, -0.2138281, -0.03859253, 0.9845258, 26.25498, -73.77754, -34.81736, 20.69412
8.859933, -0.07491211, 0.09607544, 1.079522, 67.04766, -83.07632, -53.01858, 20.6
8.879934, -0.01851562, 0.1136456, 1.25966, 68.96839, -89.69218, -53.44542, 20.64706
8.899936, -0.02291016, 0.02792175, 1.38719, 57.32205, -75.72876, -24.75639, 20.64706
8.919936, -0.03707031, -0.02592773, 1.486294, 82.80986, -96.12511, 4.146049, 20.6
8.939934, 0.06424805, 0.02162109, 1.426116, 103.694, -110.5458, -10.27468, 20.6
8.959935, 0.1218652, 0.1542535, 1.430665, 105.6452, -95.11901, -35.12224, 20.69412
8.979934, 0.2212305, 0.2556274, 1.422534, 92.6879, -71.06412, -33.232, 20.50588
9.010785, 0.1990137, 0.1316467, 1.488648, 74.66961, -26.00315, -41.40274, 20.64706
9.024934, 0.1528711, 0.1082996, 1.416393, 78.48059, -17.34461, -39.78688, 20.6
9.039941, 0.1294336, 0.06104675, 1.380542, 90.79766, -34.29583, -35.21371, 20.55294
9.059939, 0.1274805, 0.04375, 1.209783, 126.1025, -67.77145, -16.70761, 20.55294
9.079938, 0.1243066, 0.04665039, 1.063664, 167.7489, -75.119, 12.25581, 20.64706
9.099941, 0.1990137, 0.1482318, 1.292569, 186.9867, -77.71047, 1.554585, 20.6
9.119937, 0.05521484, 0.1206671, 1.295414, 186.9867, -91.12511, -32.40883, 20.64706
9.139936, 0.1101465, 0.1693805, 1.2266, 175.0659, -104.8141, -31.58566, 20.64706
9.15994, 0.2153711, 0.2273718, 1.136552, 137.5964, -61.27754, -20.21371, 20.6
9.179935, 0.3657617, 0.269978, 1.109198, 113.1757, -24.29583, 0.4570244, 20.69412
9.210916, 0.4245996, 0.3391266, 1.030953, 94.02937, 6.527342, 3.322878, 20.50588
9.225099, 0.4109277, 0.3547302, 1.16743, 61.89522, 12.16759, -17.04298, 20.55294
9.239949, 0.3564844, 0.336521, 1.207135, 19.76108, 2.076122, -27.68322, 20.69412
9.259942, 0.3069238, 0.2619366, 1.048526, -9.415756, 8.78344, -23.90273, 20.64706
9.279937, 0.2659082, 0.2292993, 1.015505, -38.74503, 13.02124, -26.43322, 20.64706
9.29994, 0.2414942, 0.1633014, 0.8023302, -61.09259, 45.21636, -35.30517, 20.69412
9.31994, 0.2139063, 0.1331189, 0.8089819, -71.24503, 55.8871, -61.46371, 20.74118
9.339937, 0.2161035, 0.1355493, 0.7390862, -82.7999, 57.8688, -71.15884, 20.64706
9.359934, 0.1892481, 0.1187677, 0.7076545, -101.8243, 56.95417, -62.95761, 20.55294
9.379939, 0.1384668, 0.09341858, 0.6558136, -107.434, 46.83222, -48.62834, 20.64706
9.411032, 0.1174707, 0.131391, 0.4884834, -117.7389, 40.03344, -7.25639, 20.50588
9.425152, 0.1511621, 0.1102246, 0.8022779, -136.5804, 40.24686, -9.116147, 20.74118
9.439942, 0.2280664, 0.05032288, 0.8030881, -139.6901, 45.70417, -19.42102, 20.6
9.459936, 0.05521484, -0.0188446, 0.8459371, -129.7511, 21.25295, -40.67102, 20.64706
9.479934, -0.03902344, -0.04880493, 0.7460005, -102.0072, -19.32632, -35.57956, 20.64706
9.499936, -0.1349707, -0.1060394, 0.6916075, -84.72064, -14.20437, -18.07956, 20.6
9.519936, -0.1015234, -0.1328302, 0.8507052, -79.41576, -4.997049, 7.133854, 20.64706
9.539938, -0.107627, -0.1411005, 0.9198048, -88.44015, 7.990757, 18.20093, 20.6
9.559931, -0.178916, -0.1744641, 0.9517885, -86.73284, -7.497049, 14.38995, 20.55294
9.579936, -0.168418, -0.1048108, 0.9242657, -76.45844, -37.98486, 14.66434, 20.64706
9.611291, -0.0700293, -0.0194873, 0.8333921, -56.306, -56.369, 9.755805, 20.50588
9.625509, -0.09273438, -0.2300519, 0.8527758, -20.23893, -51.97875, 24.54239, 20.69412
9.639944, -0.0478125, -0.2110193, 1.08986, -8.592586, -48.01534, 49.60337, 20.69412
9.659938, -0.006552733, -0.246593, 1.177151, -27.25112, 6.191976, 52.89606, 20.6
9.67993, 0.02640625, -0.146203, 1.420944, -30.97064, -28.47266, 42.68264, 20.6
9.699934, 0.04398438, -0.1406274, 1.336281, -15.14746, -64.8751, 37.16434, 20.55294
9.719941, 0.1694727, -0.07877808, 1.131666, -1.763317, -52.28364, 33.26191, 20.50588
9.739933, 0.3025293, 0.04762817, 1.285941, -26.21454, -22.40559, 46.12776, 20.6
9.759939, 0.2385645, -0.0001043705, 1.256252, -65.90966, 4.027342, 52.59118, 20.6
9.779938, 0.2810449, -0.07096558, 1.253813, -80.14747, 21.86271, 49.45093, 20.69412
9.811446, 0.1963281, -0.0166687, 1.150106, -71.94624, 0.7651464, 40.73142, 20.6
9.825627, 0.2832422, 0.0773407, 1.010568, -81.0926, -23.56412, 30.45703, 20.69412
9.839942, 0.1912012, 0.1898553, 0.952222, -110.5438, -27.49705, 18.07898, 20.55294
9.859943, 0.2681055, 0.116853, 0.8199989, -125.8487, 10.03344, 22.34727, 20.64706
9.879935, 0.3103418, -0.002680664, 1.396539, -112.2816, -11.91778, 14.75581, 20.64706
9.899936, 0.3611231, -0.1440833, 1.189963, -23.95844, 0.6127074, 4.725317, 20.64706
9.919935, 0.4958887, 0.06858277, 1.204674, 16.37693, 8.600513, -8.811269, 20.55294
9.939937, 0.3774805, 0.1971777, 1.026786, -0.1474634, 18.90539, -16.61615, 20.69412
9.95994, 0.3457422, 0.1764667, 1.111341, -17.58649, 6.039537, -38.07956, 20.69412
9.979938, 0.2002344, -0.03917847, 1.260771, -35.8182, -8.015341, -36.95151, 20.69412
10.01165, 0.006875001, -0.4156622, 1.303388, -7.007219, 14.60661, -8.171025, 20.55294
10.02599, 0.2087793, -0.1678754, 1.283533, 15.43181, 18.23466, -9.725903, 20.6
10.03994, 0.2563867, -0.1370605, 0.9967532, 43.694, 37.8688, -10.57956, 20.6
10.05993, 0.2505274, 0.07588196, 0.8515331, 63.66352, 42.28954, -10.39664, 20.6
10.07994, 0.2283106, 0.1352252, 0.8734862, 43.35864, 42.01515, -15.4881, 20.6
10.09993, 0.06864258, 0.21255, 0.6862657, 29.24278, 14.94198, -17.86615, 20.6
10.11994, 0.1296777, 0.1749573, 0.7602825, 6.62083, -3.106805, -9.969806, 20.6
10.13994, 0.01786133, 0.06055786, 0.4265563, -7.677951, 14.24076, -19.36005, 20.55294
10.15993, 0.2004785, 0.2766187, 0.6365074, -25.36088, 25.03344, -16.86005, 20.64706
10.17994, 0.2038965, 0.2134723, 0.6640297, -29.72064, 30.06393, -28.53688, 20.64706
10.21172, 0.1860742, 0.09491577, 1.05596, -36.00112, -23.6251, -34.26859, 20.55294
10.22606, 0.1719141, 0.1026233, 1.034102, -25.57429, -38.47266, -11.43322, 20.64706
10.24003, 0.1406641, -0.07724915, 0.9657562, -9.324293, -43.77754, -14.26859, 20.64706
10.25994, 0.06375977, -0.06315918, 0.8546051, -0.1779512, -18.25924, -5.579561, 20.6
10.27994, 0.08451172, -0.02548279, 0.8977053, -2.586488, 12.19808, -12.56127, 20.6
10.29994, 0.1892481, 0.03617065, 1.085626, -15.42185, 17.41149, -29.29908, 20.50588
10.31994, 0.2600488, 0.02545105, 1.076314, -4.690146, 14.02734, -41.89054, 20.6
10.33993, 0.1660547, 0.008668823, 0.9809083, 2.931805, 1.161488, -46.00639, 20.50588
10.35994, 0.1636133, -0.01150024, 1.026037, -21.94624, -10.3629, -20.00029, 20.64706
10.37994, 0.004433595, -0.3649237, 0.9406327, -47.43405, 21.49686, -9.238098, 20.55294
10.41218, 0.05399414, -0.3283758, 0.9357351, -73.77552, 65.18588, 8.963121, 20.6
10.4265, 0.1841211, -0.3867724, 1.152059, -94.50723, 67.80783, 1.249707, 20.50588
10.44045, 0.1265039, -0.5496759, 1.403247, -102.7999, 48.99686, -5.244195, 20.6
10.45994, 0.119668, -0.6924817, 1.419991, -59.93405, 30.79564, -8.628342, 20.6
10.47994, 0.07474609, -0.5797107, 1.069301, 1.437902, -1.734854, -12.50029, 20.69412
10.49993, -0.04952148, -0.4438721, 0.6940731, 47.47449, -11.46047, -9.268586, 20.6
10.51994, 0.1079492, -0.2541235, 0.5461344, 5.431805, -4.509244, -0.4880976, 20.6
10.53994, 0.1694727, -0.2107044, 0.7335015, -71.27552, 15.67368, 6.097269, 20.6
10.55993, 0.1333399, -0.02810791, 1.19178, 76.31596, 50.30783, 14.78629, 20.69412
10.57993, -0.08003906, -0.433529, 0.8344887, 80.9806, 35.24686, 15.42654, 20.64706
10.61231, 0.1260156, -0.5672736, 0.9623528, 128.1757, 98.66149, -1.494195, 20.64706
10.62669, 0.2085352, -0.5549121, 1.219043, 93.9379, 48.23466, -6.097854, 20.64706
10.64064, 0.1282129, -0.3812311, 1.115339, 83.63303, 37.35051, 0.3960488, 20.6
10.65994, -0.08443359, -0.3730457, 0.9053177, 87.90133, 8.570024, -7.988098, 20.55294
10.67994, -0.08907227, -0.3008899, 0.8575195, 94.97449, 3.051732, -7.927122, 20.69412
10.69994, -0.1054297, -0.1965356, 0.8825615, 115.2794, 1.070024, -3.750293, 20.55294
10.71994, 0.1616602, -0.05125, 1.137359, 103.755, 5.765146, 13.20093, 20.64706
10.73994, 0.04056641, -0.04542297, 1.454991, 47.07815, 37.8688, -2.25639, 20.69412
10.75994, 0.02298828, 0.04959778, 1.114408, -0.02551222, -6.826317, -0.4880976, 20.64706
10.77994, 0.05619141, -0.04855103, 0.8781402, 11.86473, 5.85661, -1.799073, 20.50588
10.81245, -0.07515625, -0.009107057, 0.9298183, 51.52936, 39.57612, -9.634439, 20.64706
10.82679, -0.09175781, 0.07780883, 1.512875, 10.88912, -2.314122, 4.572878, 20.69412
10.84076, -0.1151953, -0.05902222, 0.8631125, 2.962293, -4.204366, 5.121659, 20.64706
10.85994, -0.02510742, -0.05687317, 1.031989, -0.1169757, -11.73485, 8.353366, 20.6
10.87993, -0.02388672, -0.01476013, 1.005391, 0.9196098, -8.503147, 11.49361, 20.64706
10.89993, 0.003701173, 0.004290771, 0.9997231, 0.3708293, -5.972659, 25.15215, 20.64706
10.91994, -0.002646483, -0.007161866, 0.9804008, -0.08648777, -4.539732, 28.018, 20.64706
10.93993, -0.06783203, -0.02758484, 0.9964798, 1.285463, -8.808025, 7.926537, 20.6
10.95994, -0.05635742, -0.007440796, 0.9838412, 0.1879025, -15.05802, -6.768585, 20.69412
10.97993, -0.05708984, -0.03055725, 0.9767247, 0.5537561, -22.92388, -10.42712, 20.6
11.01272, -0.03951172, 0.07862976, 0.9686146, -0.7267318, -8.929976, -4.390537, 20.55294
11.02702, 0.01786133, 0.1201953, 0.9984048, -0.1474634, -3.381195, 2.926537, 20.50588
11.04088, 0.04935547, 0.0992749, 1.011263, 0.2793658, -1.582415, 1.463122, 20.6
11.05994, -0.01021484, 0.01937622, 1.003046, -0.08648777, -0.3629024, 0.1216585, 20.6
11.07994, -0.01363281, 0.01499206, 1.004691, -0.02551222, -1.369, -0.8539513, 20.6
11.09994, -0.008261718, 0.01816833, 0.9934023, -0.05599999, -3.32022, -4.634439, 20.6
11.11994, -0.01241211, 0.02890564, 1.011545, -0.1169757, -3.381195, -6.524683, 20.6
11.13994, -0.07198242, 0.01987183, 1.005254, 0.1879025, -0.8811951, -12.16493, 20.64706
11.15993, 0.02542969, 0.01642761, 1.003477, 0.1269268, 0.03343904, -7.835659, 20.6
11.17994, 0.02518555, 0.01865112, 0.9919948, 0.1574147, 0.06392682, -4.664927, 20.6
11.2128, 0.02152344, 0.0162207, 1.002973, 0.03546345, -0.1799756, -0.2441951, 20.64706
11.22709, -0.0006933585, 0.02134155, 0.9913005, -0.05599999, 0.002951264, -0.0002926588, 20.64706
11.24104, -0.0004492178, 0.02255554, 0.9980867, 0.004975557, 0.03343904, -0.09175611, 20.55294
11.25994, -0.004355468, 0.01694336, 1.000239, 0.06595123, -0.119, -0.03078049, 20.69412
11.27994, -0.006552733, 0.02011719, 1.000557, 0.03546345, -0.02753651, -0.06126827, 20.55294
11.29993, 0.005410157, 0.01621094, 0.9983462, 0.004975557, 0.06392682, 0.1826341, 20.69412
11.31993, -0.002890624, 0.01840393, 1.001029, 0.03546345, 0.1553903, 0.09117073, 20.6
11.33993, -0.002646483, 0.0220697, 1.011283, -0.1169757, 0.1249025, 0.1216585, 20.64706
11.35994, 0.004189454, 0.01401184, 0.9866618, -0.1474634, -0.119, 0.1826341, 20.6
11.37994, 0.00248047, 0.01741577, 0.9958334, 0.004975557, 0.3078293, -0.09175611, 20.64706
11.41302, 0.004433595, 0.01768371, 0.9712907, -0.208439, -0.271439, -0.06126827, 20.6
11.42725, -0.01875976, 0.01914062, 0.9899486, -0.02551222, -0.3324146, 0.1216585, 20.64706
11.44116, 0.001748048, 0.02011658, 0.9878176, 0.004975557, -0.6372926, 0.03019512, 20.64706
11.45994, -0.008261718, 0.01401794, 0.9968546, -0.05599999, 0.002951264, 0.06068292, 20.6
11.47993, 0.004189454, 0.02133667, 0.9897655, 0.1574147, 0.1249025, -0.03078049, 20.64706
11.49994, -0.005576171, 0.01987793, 1.003736, -0.02551222, 0.06392682, -2.073463, 20.64706
11.51994, -0.05000977, 0.01036255, 1.001327, -0.02551222, -0.3933902, -6.616147, 20.6
11.53994, 0.0134668, 0.01962708, 0.9975411, -0.02551222, 0.002951264, -3.201512, 20.64706
11.55994, 0.007363282, 0.01817261, 0.9983513, 0.03546345, 0.002951264, -2.439317, 20.69412
11.57994, 0.004921876, 0.01671265, 1.002502, -0.05599999, -0.2409512, -1.189317, 20.6
11.61314, -0.0009374991, 0.01647339, 0.9991117, 0.06595123, -0.1799756, -0.7929757, 20.6
11.62735, -0.006308593, 0.018656, 1.005654, -0.08648777, 0.06392682, -0.9759025, 20.64706
11.64122, -0.003134765, 0.01914612, 1.008095, 0.03546345, 0.002951264, -1.219805, 20.64706
11.65994, -0.009970702, 0.01766968, 1.006395, 0.1574147, -0.05802441, -1.43322, 20.64706
11.67994, -0.001914062, 0.01815613, 1.001016, 0.03546345, 0.06392682, -1.219805, 20.74118
11.69994, 0.002968751, 0.01426453, 1.008554, 0.06595123, 0.06392682, 0.1216585, 20.55294
11.71993, -0.006796874, 0.01791992, 1.002251, 0.2183902, 0.09441471, 0.1826341, 20.64706
11.73994, 0.003212892, 0.02085632, 0.9871717, 0.2183902, 0.002951264, 0.03019512, 20.6
11.75994, -0.0004492178, 0.02012695, 0.9942111, -0.08648777, 0.1858781, -0.09175611, 20.74118
11.77994, 0.002236329, 0.01597839, 1.002484, 0.004975557, 0.3078293, -0.2137073, 20.6
11.81334, 0.000283204, 0.01963623, 0.9993507, -0.08648777, -0.02753651, -0.06126827, 20.64706
11.82782, -0.004111327, 0.009371947, 0.9983309, 0.004975557, 0.06392682, 0.1216585, 20.74118
11.84176, -0.0006933585, 0.02132813, 1.006173, -0.3913659, 0.4602683, 0.06068292, 20.74118
11.85994, -0.00142578, 0.02181213, 1.006877, 0.06595123, 0.1858781, 0.09117073, 20.74118
11.87994, -0.007041015, 0.01963562, 1.001509, 0.096439, 0.1553903, 0.1826341, 20.64706
11.89994, 0.001015626, 0.01938599, 1.015456, 0.03546345, 0.1249025, 0.3045854, 20.69412
11.91994, -0.00142578, 0.02084778, 1.001254, 0.096439, 0.3688049, 0.2131219, 20.64706
11.93994, 0.001015626, 0.01816711, 1.002521, -0.1169757, 0.1553903, 0.09117073, 20.64706
11.95993, -0.006796874, 0.01816833, 0.9954012, -0.05599999, 0.1858781, 0.06068292, 20.64706
11.97994, -0.007773437, 0.01817322, 0.994482, -0.208439, -0.2104634, 0.09117073, 20.64706
12.01345, -0.002890624, 0.02037231, 0.9941971, 0.096439, 0.002951264, 0.09117073, 20.55294
12.02784, -0.0002050772, 0.02354675, 0.9988752, -0.208439, -0.02753651, -0.03078049, 20.6
12.04175, 0.000283204, 0.01646362, 0.9910398, 0.06595123, -0.02753651, 0.3350732, 20.64706
12.05994, -0.00118164, 0.01425049, 1.008091, 0.06595123, 0.06392682, 0.03019512, 20.69412
12.07994, -0.004355468, 0.02476746, 0.9990557, 0.03546345, 0.03343904, -0.03078049, 20.69412
12.09993, -0.001669921, 0.01305908, 0.9997855, -0.1169757, 0.1249025, -0.06126827, 20.69412
12.11994, -0.00899414, 0.02792908, 0.9895138, 0.004975557, 0.03343904, 0.2131219, 20.6
12.13993, -0.00533203, 0.02181763, 0.9927743, -0.05599999, -0.1799756, 0.1216585, 20.69412
12.15994, -0.004355468, 0.01985962, 1.008851, -0.05599999, 0.002951264, 0.2131219, 20.6
12.17993, -0.0009374991, 0.01278747, 0.9964122, 0.1879025, -0.08851218, 0.5789756, 20.69412
12.21366, -0.0002050772, 0.01865417, 0.992024, -0.02551222, 0.06392682, 0.2131219, 20.69412
12.22801, -0.006064452, 0.02328796, 1.006423, -0.05599999, 0.09441471, 0.2131219, 20.64706
12.2419, 0.0007714853, 0.02110352, 0.9990506, 0.1879025, 0.03343904, -0.0002926588, 20.74118
12.25994, -0.005820312, 0.02598328, 1.004675, 0.096439, 0.06392682, 0.09117073, 20.64706
12.27993, -0.008261718, 0.02012695, 0.9985968, 0.004975557, 0.06392682, -0.03078049, 20.69412
12.29994, -0.005576171, 0.01450073, 1.002761, 0.004975557, -0.08851218, 0.1826341, 20.6
12.31994, -0.003623046, 0.02109131, 0.99467, 0.1269268, 0.06392682, 0.2131219, 20.69412
12.33994, -0.006064452, 0.01523438, 1.004186, 0.1269268, 0.06392682, 0.03019512, 20.69412
12.35993, -0.0002050772, 0.02036194, 1.006175, -0.02551222, 0.1553903, 0.1216585, 20.6
12.37994, -0.008261718, 0.01401672, 0.9934774, 0.1269268, 0.1553903, -0.03078049, 20.6
12.41383, 0.003701173, 0.01939575, 1.00055, 0.03546345, 0.06392682, -0.09175611, 20.69412
12.42813, -0.0002050772, 0.01938965, 1.007362, 0.1269268, 0.1553903, 0.2131219, 20.69412
12.44197, 0.0007714853, 0.01693603, 0.9946421, -0.08648777, 0.002951264, -0.1222439, 20.74118
12.45994, 0.006142579, 0.0189093, 1.007849, -0.05599999, -0.05802441, 0.1826341, 20.64706
12.47994, -0.006308593, 0.01937866, 1.013741, 0.1269268, -0.1799756, 0.2436098, 20.74118
12.49994, 0.004433595, 0.02035767, 1.007847, 0.096439, 0.03343904, 0.06068292, 20.64706
12.51994, 0.00272461, 0.018656, 0.9998416, 0.03546345, 0.03343904, -0.1832195, 20.6
12.53994, -0.002890624, 0.022323, 1.001033, -0.05599999, 0.1553903, 0.1216585, 20.78824
12.55994, -0.001669921, 0.02720215, 1.00492, 0.004975557, 0.1553903, 0.03019512, 20.69412
12.57993, -0.0009374991, 0.01768371, 1.005964, -0.1169757, 0.1553903, -0.1222439, 20.69412
12.61403, 0.001015626, 0.02182312, 0.9978974, 0.1574147, 0.09441471, 0.03019512, 20.64706
12.62846, -0.007773437, 0.01719055, 1.004703, 0.03546345, 0.002951264, -0.03078049, 20.69412
12.6423, 0.0005273447, 0.01864868, 1.005236, -0.05599999, -0.02753651, 0.06068292, 20.64706
12.65993, -0.00118164, 0.02109985, 0.998874, 0.03546345, 0.06392682, 0.1216585, 20.69412
12.67993, 3.906339e-05, 0.01866455, 0.993452, 0.096439, 0.09441471, 0.2436098, 20.74118
12.69993, -0.00118164, 0.01718323, 0.9975411, 0.2793658, 0.2163659, 2.255805, 20.64706
12.71994, 0.04935547, 0.01402832, 1.005679, -0.05599999, -0.02753651, 6.21922, 20.64706
12.73994, -0.009482421, 0.02280029, 0.9978375, 0.06595123, 0.1553903, 2.957025, 20.74118
12.75994, -0.01851562, 0.02281616, 1.00201, 0.06595123, 0.09441471, 0.6094635, 20.64706
12.77994, -0.0004492178, 0.01864685, 0.9974092, 0.03546345, 0.2468537, 0.1521463, 20.55294
12.81419, -0.001669921, 0.01767883, 0.9951405, -0.1169757, 0.1553903, 0.03019512, 20.64706
12.82856, -0.007529296, 0.01888794, 1.006412, 0.06595123, 0.4602683, 0.06068292, 20.69412
12.84242, -0.002158202, 0.018656, 1.000045, 0.1269268, 0.09441471, -0.09175611, 20.69412
12.85994, -0.003867187, 0.02693298, 1.003715, 0.1269268, 0.1249025, 0.1521463, 20.6
12.87994, 0.000283204, 0.02060059, 0.99444, -0.1169757, -0.1799756, 0.2131219, 20.69412
12.89994, -0.002890624, 0.02402283, 1.006141, 0.06595123, 0.002951264, 0.06068292, 20.6
12.91994, -0.003867187, 0.02400452, 1.002973, 0.248878, -0.08851218, 0.09117073, 20.6
12.93993, -0.001669921, 0.01986328, 1.002031, -0.05599999, 0.09441471, -0.1222439, 20.78824
12.95994, -0.004599608, 0.01913208, 1.00078, -0.02551222, 0.1553903, 0.03019512, 20.64706
12.97994, 0.000283204, 0.01548828, 0.9981059, 0.2183902, -0.05802441, 0.09117073, 20.64706
13.01432, -0.002890624, 0.01766968, 0.9915205, -0.05599999, 0.002951264, -0.09175611, 20.64706
13.02858, -0.0002050772, 0.0140155, 1.001052, -0.208439, 0.03343904, 0.03019512, 20.6
13.04245, -0.004355468, 0.01376343, 0.9910449, 0.1574147, 0.2773415, 0.1216585, 20.69412
13.05994, 0.002236329, 0.018396, 1.000495, 0.1269268, 0.09441471, -0.03078049, 20.64706
13.07994, -0.006552733, 0.01253296, 1.003946, -0.05599999, 0.2163659, -0.0002926588, 20.6
13.09993, 0.001503907, 0.02255859, 1.002497, -0.02551222, 0.03343904, -0.1222439, 20.64706
13.11993, -0.00533203, 0.01327759, 0.9956275, -0.1779512, 0.06392682, -0.0002926588, 20.6
13.13994, 0.00248047, 0.01572205, 1.007676, -0.05599999, 0.002951264, 0.06068292, 20.69412
13.15993, -0.001914062, 0.01985657, 0.9895534, -0.1169757, -0.02753651, 0.06068292, 20.6
13.17993, -0.008261718, 0.02255371, 0.9991117, -0.05599999, 0.06392682, -0.1527317, 20.6
13.21455, -0.0002050772, 0.02010681, 1.00052, 0.2793658, -0.08851218, 0.06068292, 20.64706
13.22893, 0.00248047, 0.01694519, 1.001538, -0.02551222, -0.1799756, -0.2137073, 20.78824
13.24277, 0.002236329, 0.01938232, 1.005949, 0.03546345, 0.002951264, 0.1216585, 20.69412
13.25994, -0.00142578, 0.02061768, 1.002277, -0.02551222, 0.1249025, -0.06126827, 20.74118
13.27993, -0.006552733, 0.02061096, 0.9937202, -0.05599999, 0.03343904, -0.1527317, 20.74118
13.29993, -0.0006933585, 0.02281494, 0.9981186, 0.1269268, 0.09441471, -0.1832195, 20.64706
13.31993, 0.00248047, 0.01841308, 1.005176, 0.004975557, -0.1494877, 0.03019512, 20.64706
13.33994, -0.003867187, 0.01718506, 1.002283, 0.1269268, -0.08851218, 0.1521463, 20.64706
13.35994, -0.002158202, 0.02181213, 0.9963943, 0.096439, 0.03343904, -0.2441951, 20.6
13.37994, -0.001669921, 0.02133484, 0.9916958, 0.004975557, 0.03343904, 0.09117073, 20.69412
13.41466, -0.004843749, 0.01790771, 1.000312, 0.1879025, -0.119, 0.2131219, 20.64706
13.429, 0.002236329, 0.0147583, 0.9961769, -0.02551222, 0.2163659, -0.03078049, 20.69412
13.44282, 0.002968751, 0.0189032, 1.000242, -0.05599999, 0.1553903, 0.1216585, 20.64706
13.45994, 0.002236329, 0.01914429, 1.001285, 0.1879025, 0.09441471, 0.06068292, 20.69412
13.47994, -0.004843749, 0.01913879, 0.9993699, -0.1169757, -0.02753651, -0.0002926588, 20.74118
13.49994, -0.0009374991, 0.01596436, 0.9995542, -0.1779512, 0.2163659, 0.06068292, 20.74118
13.51993, -0.003378905, 0.01865234, 1.004433, 0.004975557, 0.06392682, -0.3051707, 20.74118
13.53994, -0.0002050772, 0.01792175, 1.002033, -0.02551222, -0.1799756, -0.2137073, 20.64706
13.55993, -0.00118164, 0.02279175, 1.002453, -0.02551222, -0.02753651, -0.03078049, 20.64706
13.57994, -0.002158202, 0.01962891, 0.9932358, -0.1474634, 0.1249025, 0.06068292, 20.55294
13.61484, -0.003378905, 0.01865112, 1.009803, 0.1269268, -0.08851218, 0.1216585, 20.69412
13.62943, -0.008261718, 0.02524292, 1.005201, 0.004975557, -0.119, 0.09117073, 20.74118
13.64325, -0.005820312, 0.0184137, 0.9990621, 0.004975557, -0.05802441, -0.0002926588, 20.64706
13.65994, -0.005820312, 0.01716736, 0.9993138, 0.096439, -0.02753651, -0.06126827, 20.6
13.67993, 0.001992188, 0.02034668, 0.9973735, 0.1269268, 0.06392682, -0.09175611, 20.69412
13.69994, -0.01167969, 0.0228125, 1.010551, 0.03546345, 0.002951264, 0.09117073, 20.69412
13.71993, -0.009726562, 0.01499939, 0.9964262, 0.03546345, 0.06392682, 0.03019512, 20.64706
13.73994, 0.001503907, 0.01888001, 1.000311, 0.096439, 0.002951264, 0.06068292, 20.74118
13.75994, -0.006064452, 0.01865417, 1.008077, 0.03546345, 0.03343904, 0.2436098, 20.74118
13.77994, -0.001914062, 0.01962646, 0.9968979, 0.2183902, 0.09441471, 0.1521463, 20.64706
13.81501, -0.00508789, 0.02718994, 0.9966359, -0.05599999, 0.002951264, -0.03078049, 20.69412
13.82944, -0.004843749, 0.02304321, 0.9907791, -0.02551222, 0.06392682, -0.1832195, 20.69412
13.84323, 0.001748048, 0.02425293, 0.9978426, -0.02551222, 0.1553903, 0.03019512, 20.69412
13.85994, -0.003867187, 0.01889527, 1.000073, -0.08648777, 0.09441471, -0.06126827, 20.69412
13.87993, 0.002236329, 0.02133118, 1.002748, -0.1169757, 0.3688049, 0.09117073, 20.69412
13.89993, -0.003134765, 0.01574097, 1.002526, 0.096439, 0.002951264, 0.06068292, 20.6
13.91993, -0.003623046, 0.01573059, 0.9952106, 0.004975557, 0.002951264, -0.03078049, 20.69412
13.93993, -0.002158202, 0.01767822, 1.000318, 0.004975557, -0.05802441, 0.06068292, 20.69412
13.95994, 0.003701173, 0.02183777, 0.9995936, 0.096439, -0.02753651, -0.03078049, 20.69412
13.97994, 0.0007714853, 0.01766907, 0.9998506, -0.05599999, 0.03343904, -0.06126827, 20.64706
14.01526, 0.003701173, 0.01962463, 1.002737, 0.096439, 0.1858781, 0.1521463, 20.78824
14.02981, 0.003945313, 0.02230042, 1.002491, 0.06595123, 0.1249025, 0.03019512, 20.74118
14.0436, -0.005576171, 0.01523987, 0.9978859, 0.096439, 0.1249025, 0.03019512, 20.64706
14.05994, 3.906339e-05, 0.01791077, 0.9976138, 0.248878, 0.1553903, 0.06068292, 20.6
14.07994, 0.00248047, 0.01937256, 1.003727, 0.1574147, -0.02753651, 0.2436098, 20.64706
14.09993, -0.004355468, 0.02158386, 1.006647, -0.08648777, 0.002951264, 0.1826341, 20.64706
14.11994, 0.000283204, 0.01865906, 0.9976418, 0.004975557, 0.002951264, 0.1216585, 20.69412
14.13993, 0.00272461, 0.0215918, 0.9997983, -0.05599999, 0.2163659, 0.1521463, 20.69412
14.15994, -0.003623046, 0.01986755, 1.001741, 0.004975557, 0.002951264, -0.06126827, 20.69412
14.17994, 0.003457032, 0.01328552, 1.000573, 0.004975557, 0.06392682, 0.09117073, 20.69412
14.21533, 0.0005273447, 0.01498962, 1.004424, 0.06595123, -0.05802441, 0.2436098, 20.69412
14.22986, -0.002402343, 0.02182495, 0.9964134, 0.1269268, -0.02753651, -0.1527317, 20.83529
14.24367, -0.005820312, 0.01646545, 1.009568, 0.1574147, 0.1858781, 0.09117073, 20.69412
14.25994, -0.00118164, 0.01646301, 0.9991041, 0.1269268, 0.1249025, 0.06068292, 20.64706
14.27994, -0.005576171, 0.0203656, 1.000059, 0.03546345, 0.09441471, 0.03019512, 20.78824
14.29993, -0.002890624, 0.02231445, 0.9995784, 0.06595123, 0.06392682, -0.0002926588, 20.78824
14.31994, -0.003867187, 0.01744568, 0.9985674, -0.1169757, -0.02753651, 0.06068292, 20.78824
14.33994, 0.001748048, 0.02109619, 0.9995911, 0.1269268, 0.1249025, 0.03019512, 20.64706
14.35994, -0.0006933585, 0.02109131, 0.9980906, 0.06595123, 0.2163659, 0.1216585, 20.64706
14.37993, -0.00118164, 0.01938965, 1.007193, 0.004975557, 0.1249025, -0.03078049, 20.74118
14.41545, 0.001503907, 0.01791504, 0.9970949, -0.2389269, 0.03343904, 0.03019512, 20.69412
14.4299, -0.007285155, 0.01596008, 0.9990787, 0.1269268, -0.02753651, 0.1216585, 20.64706
14.4437, -0.00533203, 0.02255249, 1.003664, 0.06595123, -0.05802441, 0.1216585, 20.78824
14.45994, 0.002968751, 0.01987671, 0.991523, 0.004975557, -0.02753651, 0.09117073, 20.69412
14.47993, -0.007529296, 0.0123053, 1.001512, 0.004975557, 0.1249025, 0.1216585, 20.69412
14.49994, -0.002402343, 0.02207153, 1.002483, 0.004975557, 0.09441471, 0.1521463, 20.74118
14.51994, 0.00248047, 0.01547852, 0.9947121, 0.06595123, 0.1553903, 0.09117073, 20.69412
14.53993, -0.002402343, 0.01914246, 1.00954, -0.05599999, 0.2468537, 0.09117073, 20.64706
14.55994, -0.0006933585, 0.02205932, 0.9998213, -0.02551222, -0.02753651, 0.1216585, 20.64706
14.57994, -0.0002050772, 0.01596802, 1.002224, 0.2183902, -0.05802441, 0.1521463, 20.64706
14.61567, 0.004921876, 0.02157166, 1.007832, 0.06595123, 0.1249025, -0.06126827, 20.74118
14.63009, -0.003623046, 0.01597412, 0.9910373, 0.06595123, 0.03343904, -0.06126827, 20.74118
14.64401, -0.002402343, 0.02328796, 1.003988, 0.06595123, 0.1858781, 0.03019512, 20.78824
14.65994, 0.0007714853, 0.01547974, 1.004207, 0.1879025, -0.02753651, 0.1826341, 20.69412
14.67994, -0.002402343, 0.0132727, 0.9971344, -0.05599999, 0.03343904, -0.03078049, 20.78824
14.69994, -0.003623046, 0.02182861, 0.9915205, -0.02551222, -0.05802441, -0.0002926588, 20.78824
14.71994, -0.004111327, 0.019375, 1.000055, -0.1474634, 0.06392682, -0.0002926588, 20.69412
14.73994, -0.002890624, 0.02182495, 1.00375, -0.1169757, -0.02753651, 0.1216585, 20.69412
14.75994, 0.001503907, 0.02060669, 1.00055, 0.004975557, 0.03343904, -0.0002926588, 20.6
14.77994, 0.001015626, 0.02230957, 0.991523, 0.03546345, 0.1553903, -0.06126827, 20.74118
14.81591, 0.004189454, 0.01792663, 1.000512, 0.06595123, 0.1858781, 0.03019512, 20.64706
14.83036, 0.00272461, 0.01743896, 0.9946892, -0.1169757, 0.06392682, 0.09117073, 20.69412
14.84419, -0.005576171, 0.01573486, 0.9998365, -0.05599999, 0.06392682, 0.1521463, 20.64706
14.85994, -0.005820312, 0.016698, 0.9956403, 0.004975557, 0.06392682, 0.09117073, 20.64706
14.87994, -0.002646483, 0.01817017, 0.9998404, -0.1779512, 0.002951264, -0.03078049, 20.69412
14.89994, -0.00118164, 0.02110046, 1.004694, 0.03546345, -0.02753651, 0.1826341, 20.78824
14.91993, 0.004677735, 0.01718567, 0.9908122, 0.096439, 0.1858781, -0.0002926588, 20.78824
14.93993, 0.001748048, 0.02086548, 1.020068, -0.02551222, -0.119, -0.06126827, 20.69412
14.95993, 0.001992188, 0.02475525, 0.9946981, -0.02551222, 0.002951264, 0.06068292, 20.69412
14.97994, 0.004189454, 0.01817383, 1.001801, 0.248878, 0.1858781, -0.03078049, 20.69412
15.01619, 0.003701173, 0.01913879, 0.9944845, -0.05599999, 0.03343904, 0.1521463, 20.64706
