time,acc_x,acc_y,acc_z,gyro_x,gyro_y,gyro_z,temp
0.0, 0.02396484, 0.01864929, 0.9927246, 0.06595123, 0.09441471, 1.280195, 20.88235
0.019947, 0.02152344, 0.02644226, 0.9988141, 0.2183902, 0.06392682, 0.518, 20.92941
0.039938, 0.02665039, 0.02232666, 1.009485, -2.738927, -0.6677805, -1.43322, 20.88235
0.059933, 0.02274414, 0.003567505, 1.008071, -3.165756, 0.09441471, -0.7015122, 20.97647
0.079933, 0.008339845, 0.004767456, 1.002973, -1.245024, 0.5822196, 0.06068292, 20.88235
0.09993299, -0.007773437, 0.01255554, 1.003928, 0.6147317, -0.05802441, 0.5484878, 20.92941
0.119936, 0.01053711, 0.01793884, 1.017341, 2.261073, 2.198073, 0.8228781, 20.88235
0.139931, 0.0278711, 0.01231201, 1.013372, 1.072049, 3.539537, -0.4880976, 20.92941
0.159936, -0.06563477, -0.1057996, 1.087864, 7.200098, 4.850513, 10.57898, 20.88235
0.179932, 0.001503907, 0.03984558, 0.9362803, 1.011073, 7.381, 7.621659, 20.92941
0.200101, -0.01143555, 0.01524841, 0.9869914, 0.1879025, 1.222463, 2.194829, 20.88235
0.219946, -0.002402343, 0.009129027, 0.9897655, 0.9805853, -3.228756, 2.072878, 21.02353
0.239942, 0.02835938, 0.0008758539, 1.053786, 0.4622927, -2.222659, -0.2137073, 20.92941
0.259936, 0.1255274, 0.2214423, 0.6458869, 23.51107, 11.64929, 5.060683, 21.02353
0.279937, 0.004433595, 0.03256774, 1.021572, 20.37083, -0.9421706, 3.871659, 20.92941
0.299933, 0.07376953, 0.07201355, 0.9907715, 13.4501, 6.40539, 3.261902, 20.92941
0.319932, 0.06717773, 0.05784851, 1.029441, 1.651317, 3.112707, -5.244195, 20.97647
0.33994, 0.02201172, 0.05371887, 0.9863073, -7.251122, -1.734854, -10.06127, 20.88235
0.359938, 0.003701173, 0.04446777, 0.9810555, -9.690146, -2.679976, -6.494195, 20.88235
0.379935, -0.001914062, 0.008432616, 0.9983603, -5.909658, 2.868805, -0.5185853, 20.97647
0.39997, 0.004433595, 0.02936279, 0.9980983, -0.6962439, 5.85661, 1.219219, 20.97647
0.419944, 0.01249024, 0.05810547, 0.9774954, -0.208439, 3.387098, -1.829561, 21.07059
0.43994, 0.01419922, 0.07490723, 0.9916517, -1.702342, 1.313927, -3.750293, 20.97647
0.45993, 0.01810547, 0.07856202, 0.9412115, -3.53161, 0.9175854, -4.390537, 20.88235
0.47993, 0.01566406, 0.05031799, 0.9772016, -10.90966, -2.039732, -4.024683, 20.92941
0.499931, 0.009560548, -0.01177185, 1.012409, -10.75722, -3.869, -1.677122, 20.92941
0.519936, 0.01029297, -0.04634705, 1.004975, -2.403561, -2.161683, 2.377756, 21.02353
0.539935, 0.01273438, -0.03129211, 0.9781794, 6.133024, -1.734854, 2.530195, 20.97647
0.559934, -0.0002050772, 0.0003967285, 0.9884435, 7.139122, -4.509244, -0.09175611, 20.88235
0.579933, 0.01224609, 0.02181763, 1.003961, 1.315951, -4.204366, -1.799073, 20.88235
0.599985, 0.004433595, 0.02133728, 0.9855112, -4.934049, -1.490951, 1.158244, 20.88235
0.619951, -0.008505858, 0.02279175, 0.9902998, -6.946244, 0.002951264, 4.389951, 20.97647
0.639936, -0.00508789, 0.02181946, 0.9960967, -5.299903, -1.216561, 5.24361, 20.88235
0.659935, 0.001015626, 0.03179199, 1.020191, -1.824293, -3.960464, 3.505805, 20.97647
0.679936, 0.02689453, 0.06419799, 0.9986425, 2.962293, -3.076317, 2.04239, 20.88235
0.699938, 0.05741211, 0.07319519, 1.005658, -0.5133171, -0.05802441, 0.03019512, 20.92941
0.719933, 0.06717773, 0.1043494, 0.9836868, -8.318195, 13.20417, 8.231415, 20.92941
0.739937, -0.0700293, 0.07183289, 0.9247067, -19.53771, 22.50295, 31.5241, 20.92941
0.759936, -0.1654883, 0.003795166, 0.9694261, -12.46454, 5.612708, 33.5363, 20.83529
0.779928, -0.1103125, 0.02131103, 1.011425, 1.803756, -1.308024, 20.18264, 20.92941
0.799998, 0.03006836, 0.1145929, 0.9978083, 8.511073, -2.34461, 6.249708, 20.97647
0.819954, 0.05472656, 0.06512329, 0.9701788, 18.17571, -6.216561, -7.866147, 20.97647
0.83994, 0.0225, 0.08587218, 0.9546494, 11.01107, -4.021439, -3.110049, 20.92941
0.8599339, -0.001669921, -0.01106445, 1.103322, 19.15132, 12.83832, 5.365561, 20.88235
0.879934, 0.009560548, 0.1128748, 1.05713, 24.79156, 23.84442, 15.18263, 20.97647
0.899933, 0.03641602, 0.2235046, 1.013832, 20.06595, 46.77125, 30.24361, 20.92941
0.919934, 0.02665039, 0.2475598, 1.105514, 29.76107, 60.3688, 40.33508, 20.97647
0.939936, -0.07442383, 0.1232599, 1.085768, 42.444, 57.53344, 30.60946, 21.02353
0.959934, -0.2343359, 0.207652, 1.013753, 33.48059, 36.16149, 2.011902, 20.97647
0.979936, -0.2533789, 0.1891498, 0.8781307, 35.64522, 19.57612, -11.89054, 20.92941
1.00011, -0.2182226, 0.1121613, 0.9988982, 46.04156, -0.8811951, -24.08566, 20.97647
1.019949, -0.1234961, 0.06565247, 1.001034, 60.21839, 3.35661, -7.988098, 20.92941
1.039939, 0.07108398, 0.165484, 1.015126, 101.1635, 88.20417, 17.7741, 21.02353
1.059931, 0.03836914, 0.3225647, 1.083358, 77.50497, 116.009, 45.15215, 20.83529
1.079933, -0.1513281, 0.429024, 1.05301, 38.72449, 121.5273, 51.00581, 20.92941
1.099932, -0.3337012, 0.3705865, 1.030945, 7.931805, 66.77124, 46.34118, 21.02353
1.119936, -0.3940039, 0.1998145, 0.9578143, 13.90742, 17.41149, 31.46312, 20.92941
1.139934, -0.3393164, 0.1457147, 0.9275995, 51.49888, -1.856805, 25.7619, 20.88235
1.159934, -0.2423926, 0.2324231, 0.9254914, 71.92571, -1.826317, 24.66434, 20.97647
1.179933, -0.1786719, 0.2950635, 0.8951497, 56.62083, 0.7346586, 21.40215, 21.02353
1.204117, -0.1176367, 0.3478821, 0.9141029, 57.16961, 27.10661, 18.87166, 20.92941
1.219958, -0.158164, 0.3554449, 0.9760089, 60.98059, 31.43588, 23.47532, 21.02353
1.239938, -0.1676855, 0.2924335, 0.8170118, 99.944, 90.00296, 32.74361, 20.97647
1.259934, -0.2582617, 0.3180048, 0.9414862, 121.9867, 124.4542, 35.06068, 20.92941
1.279936, -0.4020606, 0.2749121, 1.022417, 104.5477, 96.3749, 20.518, 20.92941
1.299933, -0.3420019, 0.4162634, 1.028827, 74.09034, 63.32613, 14.72532, 21.02353
1.319933, -0.3305273, 0.465061, 0.9706658, 66.10254, 42.99076, 7.774098, 20.97647
1.339935, -0.378623, 0.4014184, 0.7926182, 82.2001, 53.41759, -2.835659, 20.88235
1.359936, -0.2643652, 0.426546, 0.4247874, 161.4684, 140.6432, 8.658244, 21.02353
1.379938, -0.3461523, 0.5339581, 0.606697, 207.0781, 145.9481, 31.00581, 20.97647
1.404295, -0.4984961, 0.6944495, 0.8231983, 175.7672, 92.8688, 36.79849, 20.97647
1.419951, -0.4858008, 0.7663208, 0.8716121, 131.0111, 35.73466, 36.98142, 20.88235
1.439939, -0.4782324, 0.632633, 0.7500763, 78.2062, -14.50924, 28.71922, 20.97647
1.459933, -0.4950781, 0.5473914, 0.6747317, 37.99278, -49.75315, 6.524098, 20.88235
1.47993, -0.4794531, 0.5081262, 0.4901279, 43.84644, -33.65559, -10.91493, 20.88235
1.499934, -0.4530859, 0.6413305, 0.4534309, 86.40742, 29.78954, -17.7442, 20.88235
1.519935, -0.3358984, 0.7438464, 0.4916584, 119.0903, 50.85661, -6.036878, 20.97647
1.539936, -0.2834082, 0.8130651, 0.5407475, 119.7306, 10.18588, 12.34727, 20.97647
1.559936, -0.3449316, 0.8059735, 0.5783815, 84.15133, -4.14339, 13.81068, 21.02353
1.579934, -0.3525, 0.7716486, 0.5216941, 67.04766, 16.131, 5.121659, 20.83529
1.604481, -0.442832, 0.756806, 0.5510045, 66.07205, 19.45417, 1.524098, 20.92941
1.619947, -0.4572363, 0.7993817, 0.5837953, 62.29156, 29.11881, -1.402732, 20.88235
1.639934, -0.449668, 0.8646643, 0.5437733, 46.65132, 36.74076, -6.921024, 20.97647
1.659934, -0.4235449, 0.8259931, 0.4161722, 42.53547, 44.17978, -10.79298, 20.88235
1.679938, -0.3844824, 0.7835785, 0.258827, 68.38912, 54.30173, -1.036878, 20.88235
1.699935, -0.3871679, 0.8374151, 0.360707, 82.71839, 36.07003, 15.42654, 20.97647
1.719934, -0.3886328, 0.8451935, 0.2999777, 74.27327, 22.10661, 15.79239, 20.88235
1.739936, -0.4355078, 0.8425085, 0.269796, 52.53547, 22.19807, 12.7741, 20.88235
1.759935, -0.4171973, 0.8649103, 0.2199358, 46.9562, 17.50295, 15.54849, 21.02353
1.779932, -0.4211035, 0.8184345, 0.2317437, 49.51717, 4.515146, 16.31068, 20.92941
1.804604, -0.4079199, 0.7253546, 0.1305699, 85.46229, 9.057829, 15.60946, 20.97647
1.819953, -0.3764258, 0.7877106, 0.1876282, 94.09035, 17.50295, 13.87166, 20.97647
1.839937, -0.4164649, 0.8678199, 0.2954519, 87.77937, 48.631, -1.158829, 20.88235
1.859938, -0.4091406, 0.9090002, 0.3152107, 50.4623, 46.67978, -5.305171, 20.97647
1.879932, -0.3871679, 0.9000226, 0.1988396, 16.13302, 42.8993, -6.585659, 21.02353
1.899934, -0.4005957, 0.903902, 0.1748735, 4.059854, 36.67978, 3.353366, 20.97647
1.919936, -0.3481055, 0.8420435, 0.03152002, 15.24888, 25.85661, 15.91434, 21.07059
1.939935, -0.3041601, 0.8442205, 0.007592976, 25.91961, -6.09461, 25.518, 21.02353
1.959933, -0.3957129, 0.8505676, 0.08004102, 4.425707, -26.49095, 11.73751, 20.97647
1.979932, -0.3839941, 0.8323127, 0.07601042, -15.66576, -31.03364, 5.79239, 21.02353
2.004896, -0.4450293, 0.7864972, 0.1087069, 5.096439, 13.99685, 0.03019512, 20.97647
2.019951, -0.4591895, 0.8291346, 0.0407413, 17.2001, 23.631, -0.4576097, 20.92941
2.039943, -0.361289, 0.8388385, 0.01386981, 29.02937, 16.83222, 4.847269, 20.92941
2.059934, -0.3940039, 0.8685676, 0.036872, 25.61473, 5.887098, 2.255805, 20.92941
2.079937, -0.3813086, 0.9048626, 0.1242949, -1.366976, -17.8629, -2.286878, 21.02353
2.099937, -0.3913183, 0.8383771, 0.1345106, -31.73283, -33.01534, -9.969806, 20.97647
2.119932, -0.4035254, 0.8147656, 0.1605062, -51.00112, -31.49095, -12.86615, 20.97647
2.139932, -0.3861914, 0.7921069, 0.1330457, -46.70234, -13.16778, -8.292976, 20.97647
2.159936, -0.3822851, 0.7455908, 0.09850268, -26.00112, 7.746854, -1.463707, 20.97647
2.179933, -0.3971777, 0.7728522, 0.1169261, -10.84868, 6.496854, 4.024097, 20.97647
2.204963, -0.2878027, 0.7987024, 0.1206692, -18.28771, -23.59461, 15.63995, 21.07059
2.219947, -0.2624121, 0.8222839, 0.1303067, -35.26942, -45.05803, 19.268, 21.02353
2.239935, -0.322959, 0.7499994, 0.2249226, -62.12917, -60.14949, 15.70093, 21.02353
2.259934, -0.4042578, 0.6815289, 0.2379143, -93.28772, -44.02144, -1.402732, 20.92941
2.279938, -0.3800879, 0.7292902, 0.2741281, -107.1901, -26.27754, -7.927122, 21.07059
2.299941, -0.3410254, 0.7092944, 0.1723684, -75.8182, -5.484854, -4.786878, 20.92941
2.319936, -0.2746191, 0.793548, 0.2507798, -43.83649, -24.35681, 13.018, 20.92941
2.339938, -0.2528906, 0.77677, 0.3515846, -39.35478, -42.40559, 23.41434, 21.02353
2.359936, -0.2758398, 0.7665771, 0.6877892, -83.50112, -52.58852, 24.23751, 20.92941
2.379933, -0.2912207, 0.8310913, 0.6408484, -132.4036, -53.3812, 32.07288, 21.02353
2.405143, -0.4118262, 0.8230395, 0.4891513, -158.7755, -60.75924, 19.11556, 21.02353
2.419942, -0.3891211, 0.7987115, 0.4092088, -137.3426, -55.8812, 8.353366, 21.07059
2.439937, -0.2687598, 0.7166467, 0.3804831, -99.20235, -37.98486, 5.883854, 20.97647
2.459934, -0.2123633, 0.7443194, 0.7616894, -133.5621, -60.119, 16.58507, 20.97647
2.479935, -0.2321387, 0.9655115, 1.098151, -232.8914, -123.1068, 40.518, 20.97647
2.49993, -0.3710547, 0.8576691, 1.013313, -303.1658, -138.0458, 44.90825, 21.07059
2.519936, -0.2370215, 0.7563611, 0.7721542, -331.245, -138.5641, 47.74362, 20.92941
2.539934, -0.1676855, 0.6630902, 0.7488341, -324.5072, -123.2592, 50.2741, 20.97647
2.559932, -0.02730469, 0.5756921, 0.549757, -253.5011, -102.9544, 76.12775, 20.88235
2.57993, -0.2023535, 0.20617, 0.7459401, -150.1475, -27.77144, 51.15825, 20.92941
2.605381, -0.213584, 0.2811597, 1.184414, -125.2999, -19.14339, 12.98751, 20.97647
2.619949, -0.1833105, 0.3452094, 1.057072, -121.5194, -18.35071, -2.042975, 20.92941
2.639935, -0.06807617, 0.3931641, 0.9262939, -109.934, -18.19827, -4.817366, 20.97647
2.659939, 0.1760645, 0.3925036, 1.059745, -101.184, -21.24705, 15.06068, 20.97647
2.679935, -0.01314453, 0.2490881, 1.107676, -81.70235, -11.49095, 25.63995, 21.02353
2.699937, -0.1083594, 0.1808142, 1.069556, -47.98283, 2.685878, 19.45093, 20.97647
2.719935, 0.006142579, 0.2624078, 1.104669, -41.85478, 2.411488, 12.5302, 20.97647
2.739937, -0.03291992, 0.2161804, 1.089431, -46.24503, -11.30803, 3.383854, 20.97647
2.759936, -0.03584961, 0.1399298, 1.163543, -58.34868, -32.31412, -0.6100488, 20.97647
2.779936, 0.003701173, 0.03035462, 1.414185, -125.6048, -43.01534, 7.896049, 20.97647
2.805521, -0.1769629, 0.04735046, 1.095161, -180.4523, -42.92388, -17.92712, 21.02353
2.819953, -0.06441406, 0.08780823, 0.7791119, -138.5316, -24.75315, -15.00029, 20.92941
2.839944, 0.1924219, 0.1267493, 0.8096296, -80.26942, -16.24705, 8.780195, 20.92941
2.859936, 0.1672754, 0.05083374, 1.01834, -67.37308, 2.198073, 26.24971, 21.02353
2.879939, -0.02461914, -0.1262445, 1.087661, -78.34869, -10.24095, 30.7619, 20.88235
2.899934, -0.1347265, -0.2677429, 1.194292, -114.4462, -29.6312, 8.444829, 20.97647
2.919934, -0.03243164, -0.24461, 1.140774, -131.6109, -45.45436, -6.921024, 21.07059
2.939937, -0.03560547, -0.3200867, 1.037708, -115.2084, -61.27754, -19.02468, 20.97647
2.95994, 0.07328125, -0.2177972, 1.010489, -98.89747, -86.18608, -16.28078, 20.88235
2.979933, -0.02364258, -0.1971283, 0.9290095, -88.89747, -113.7166, -3.232, 20.97647
3.005634, 0.4355859, -0.2222009, 1.140241, -113.4706, -80.3934, 25.30459, 21.02353
3.019949, 0.4661035, -0.2099847, 1.165099, -125.7267, -68.53364, 42.37776, 20.97647
3.03994, 0.4297266, -0.3563904, 0.932244, -128.0438, -26.06412, 49.54239, 21.02353
3.059937, 0.130166, -0.3621765, 0.8724357, -103.3487, -42.07022, 37.46922, 21.02353
3.079933, 0.1709375, -0.4726092, 0.9218612, -75.60478, -32.31412, 39.63386, 20.92941
3.099932, 0.1460352, -0.5876977, 0.9737696, -75.72673, -39.23486, 28.44483, 21.02353
3.119932, 0.2058496, -0.6308038, 1.016289, -92.31211, -52.10071, 4.725317, 20.92941
3.139931, 0.1521387, -0.5923517, 0.8591354, -105.3609, -48.6251, -12.04298, 20.88235
3.159932, 0.4199609, -0.3911969, 0.8174637, -86.0926, -27.71046, 3.353366, 21.02353
3.179939, 0.289834, -0.5015216, 0.8484659, -75.69624, -23.68607, 9.969219, 20.88235
3.205883, 0.02103516, -0.8056677, 0.7462027, -56.21454, -43.47266, -20.82346, 21.02353
3.219945, 0.2646875, -0.7540991, 0.8531874, -43.0438, -62.89339, -29.08566, 20.97647
3.239935, 0.03861328, -0.5432068, 0.8303414, -43.62308, -96.58242, -39.75639, 21.07059
3.259936, 0.232461, -0.5207733, 0.7370719, -48.13527, -102.4361, -23.62834, 20.92941
3.279933, 0.5901269, -0.4019281, 0.7445179, -70.5743, -73.47267, 15.0302, 20.97647
3.299932, 0.5713281, -0.4362317, 0.6296677, -74.44624, -34.99705, 47.0119, 20.88235
3.319933, 0.2988672, -0.4878638, 0.6360089, -59.35478, -29.69217, 51.00581, 20.92941
3.33993, 0.2817774, -0.6773474, 0.7636941, -57.3121, -47.28364, 28.68873, 20.97647
3.35993, 0.1245508, -0.756706, 0.6748905, -84.5682, -78.22876, -7.95761, 20.92941
3.379934, 0.4602441, -0.8069183, 0.5806431, -94.38527, -58.25924, -6.067366, 21.11765
3.406077, 0.4653711, -0.6310883, 0.4955405, -88.16576, -36.1251, 0.3960488, 20.97647
3.419999, 0.5525293, -0.5910871, 0.4286114, -71.61088, -21.15559, 18.56678, 20.97647
3.439946, 0.5923242, -0.769101, 0.3586481, -32.67795, -11.30803, 31.40215, 20.97647
3.459934, 0.5342187, -0.8107916, 0.475431, -24.50722, -13.32022, 41.85947, 20.97647
3.479937, 0.4360742, -0.8083649, 0.4923277, -36.09259, -32.31412, 46.55459, 20.97647
3.499937, 0.4104394, -0.7329364, 0.4816034, -35.5743, -44.11291, 44.29849, 20.97647
3.519928, 0.3144922, -0.6934228, 0.4392554, -24.20234, -42.52754, 37.19483, 21.07059
3.539934, 0.4038476, -0.7659473, 0.4570522, -13.83649, -28.16778, 38.17044, 20.97647
3.559936, 0.5029687, -0.8777588, 0.3958436, -12.61698, -4.905585, 43.7802, 21.07059
3.579933, 0.3435449, -0.8758502, 0.3668456, -25.056, 6.252951, 34.90824, 20.88235
3.606199, 0.279336, -0.7411657, 0.4388104, -42.25112, -12.31412, 17.19483, 21.02353
3.620154, 0.2634668, -0.7401794, 0.3982263, -33.47064, -21.03364, 9.450927, 21.02353
3.639936, 0.302041, -0.7073529, 0.4072404, -14.50722, -18.47266, 12.19483, 20.92941
3.65993, 0.255166, -0.6756299, 0.4758582, -17.76942, -13.50315, 18.62776, 20.97647
3.679935, 0.3335352, -0.7740039, 0.3864572, -25.90966, -8.899488, 37.16434, 21.02353
3.699935, 0.3967676, -0.871239, 0.3110718, -26.36698, 8.631001, 53.38386, 21.02353
3.719933, 0.2685938, -0.7572412, 0.3817357, -29.38527, 5.124903, 50.7619, 20.92941
3.739934, 0.1101465, -0.7226325, 0.4051917, -25.08649, -22.43607, 29.57288, 20.97647
3.759934, 0.1240625, -0.774032, 0.3751222, -15.48283, -34.44827, 17.89605, 20.97647
3.779933, 0.2283106, -0.801087, 0.3164186, -13.53161, -22.31412, 14.90824, 20.97647
3.806407, 0.2883692, -0.8945648, 0.2603662, -20.17795, 4.17978, 8.56678, 20.97647
3.820355, 0.3215723, -0.9208984, 0.25351, -19.69015, 17.59442, 6.737513, 20.97647
3.839933, 0.2705469, -0.8605158, 0.2697437, -12.83039, 18.66149, -3.232, 20.97647
3.859934, 0.1587305, -0.7906, 0.3309282, -3.135268, -2.192171, -13.38444, 20.92941
3.879936, 0.1951074, -0.8074121, 0.2989246, -1.58039, -12.16168, -15.4881, 21.02353
3.899935, 0.2727442, -0.8127691, 0.3020041, -2.068195, -10.57632, -4.542975, 21.02353
3.919938, 0.3057031, -0.7944941, 0.2921333, -1.123073, -1.490951, 13.90215, 20.92941
3.939936, 0.262002, -0.8074152, 0.2848129, 3.358634, 10.24686, 20.0302, 21.02353
3.959934, 0.1633692, -0.7720862, 0.3195428, 9.334245, 16.86271, 14.66434, 21.02353
3.979927, 0.1296777, -0.7879138, 0.2979239, 17.62693, 16.19198, 9.694829, 21.02353
4.006492, 0.2368555, -0.794784, 0.3002875, 29.21229, 26.25295, 11.67654, 20.97647
4.020416, 0.2744531, -0.7136664, 0.3272865, 33.96839, 33.35661, 17.89605, 21.02353
4.039938, 0.2746973, -0.6281647, 0.3632447, 42.35254, 45.91759, 25.94483, 20.97647
4.059939, 0.2087793, -0.6062408, 0.3061405, 70.85864, 49.66759, 21.40215, 21.07059
4.079938, 0.09330078, -0.6578156, 0.2804477, 107.322, 45.42978, 14.14605, 20.92941
4.099938, 0.1767969, -0.6217785, 0.4140516, 113.7855, 30.73466, 12.40824, 20.97647
4.119933, 0.2849512, -0.6919879, 0.5016466, 93.41961, 27.53344, 6.524098, 21.02353
4.139935, 0.3335352, -0.7039142, 0.5201056, 100.6452, 50.09442, 16.73751, 21.07059
4.159931, 0.3520899, -0.5838465, 0.5429657, 118.633, 77.19808, 39.54239, 21.02353
4.179934, 0.01151367, -0.6154981, 0.5148901, 143.0233, 43.75295, 18.47532, 20.92941
4.206719, 0.06888672, -0.5831165, 0.737738, 181.8038, 28.96637, 3.780195, 20.92941
4.220632, 0.1140527, -0.5828729, 0.8029332, 186.3464, 38.02125, -0.7015122, 20.92941
4.239942, 0.2449121, -0.4243689, 0.8364143, 168.4806, 55.91759, 21.24971, 20.92941
4.259933, 0.2002344, -0.3563653, 0.7432864, 170.4013, 100.7651, 44.72532, 20.97647
4.279934, 0.04203125, -0.5830902, 0.8512617, 177.9013, 100.7956, 26.70703, 20.97647
4.29993, -0.1733008, -0.621358, 0.9494198, 189.0294, 30.91759, 0.6094635, 20.97647
4.31993, -0.0778418, -0.5570368, 1.082598, 161.255, -12.55803, -12.95761, 20.97647
4.339929, 0.1816797, -0.4350781, 1.054627, 124.4562, 7.015147, 9.359464, 20.97647
4.359934, 0.2226953, -0.3217871, 1.035626, 92.62693, 51.6188, 37.37776, 20.97647
4.37994, 0.085, -0.3558917, 1.137234, 66.89522, 86.80173, 49.32898, 21.02353
4.406889, -0.1913672, -0.5270832, 1.083189, 67.80985, 104.942, 27.13385, 20.92941
4.420886, -0.2699805, -0.5217402, 1.001036, 85.03547, 99.14929, 12.34727, 20.92941
4.439945, -0.2484961, -0.4618616, 1.137571, 103.4196, 49.45417, 17.92654, 20.97647
4.459938, -0.0465918, -0.3573798, 1.186114, 117.6879, 21.00905, 42.7741, 20.92941
4.479936, -0.1259375, -0.2964514, 1.048524, 116.9257, 20.3688, 43.018, 21.02353
4.499932, -0.1903906, -0.2259216, 0.7040675, 168.4806, 30.33832, 23.23142, 20.97647
4.519936, -0.3053808, -0.3115692, 0.9032484, 232.7489, 16.74076, -0.5185853, 21.07059
4.539937, -0.2143164, -0.097948, 1.096613, 248.6025, -22.67998, -10.33566, 21.07059
4.559929, -0.2753515, 0.06098694, 1.285697, 193.8159, -80.05803, -8.201512, 20.97647
4.579931, -0.1957617, 0.145788, 1.224771, 135.9196, -92.1312, -1.097854, 20.97647
4.607043, -0.1415625, 0.03059387, 1.171927, 88.4806, -78.19828, -9.390537, 21.07059
4.621025, -0.1808691, -0.01204102, 1.244711, 66.86473, -91.46048, -19.96981, 20.97647
4.63994, -0.1020117, 0.03297852, 1.26856, 46.55986, -103.2897, -31.21981, 21.02353
4.659931, -0.003867187, 0.1377313, 1.075948, 43.96839, -72.55803, -42.53078, 20.97647
4.679934, 0.1501856, 0.2468482, 0.8769583, 53.87693, 7.65539, -34.2381, 20.97647
4.699931, 0.3052149, 0.2658331, 1.031314, 43.2062, 35.6432, 0.3960488, 20.97647
4.719933, 0.1736231, 0.1005035, 1.217368, 2.748878, 29.51515, 14.42044, 20.97647
4.739932, -0.05660156, -0.01785156, 1.231734, -22.12917, 7.807829, 1.097268, 21.02353
4.759936, -0.1154395, 0.03494934, 1.199595, -11.97673, -19.20437, -12.68322, 21.07059
4.779932, 0.008095704, 0.1403924, 1.018439, 14.76108, -21.33851, -19.17712, 21.07059
4.807209, 0.09891602, 0.222746, 0.9841516, 43.51108, -19.02144, -12.2259, 21.07059
4.821131, 0.1211328, 0.2210217, 0.9684278, 45.40132, -20.27144, -8.963708, 21.02353
4.839941, 0.06424805, 0.2142139, 1.026294, 34.39522, -23.59461, -1.280781, 20.97647
4.859931, -0.03047851, 0.1708826, 1.094487, 5.706195, -16.27754, -4.542975, 21.07059
4.879939, -0.01021484, 0.1448212, 1.075226, -30.78771, -2.588512, -8.171025, 20.97647
4.899933, -0.00508789, 0.1886255, 0.9415983, -37.37307, 12.1371, -9.20761, 21.02353
4.91993, -0.004111327, 0.2320038, 0.9187154, -22.22064, 4.820024, -8.750293, 21.02353
4.939938, -0.03023437, 0.2034955, 0.864743, -2.647464, -6.369, -11.86005, 21.02353
4.959934, -0.06563477, 0.1577167, 0.8293087, 14.27327, -6.673878, -17.50029, 21.02353
4.979932, -0.08345703, 0.09511658, 0.9581917, 2.322049, -28.07632, -20.91493, 21.02353
5.007382, -0.04, 0.1155835, 0.9525516, -33.86698, -25.69827, -13.01859, 20.92941
5.021323, 0.009072267, 0.1448022, 0.8905671, -33.5621, -4.234854, -7.805171, 20.92941
5.039937, 0.08353516, 0.2054413, 0.893667, -23.59259, 16.00905, 4.146049, 21.07059
5.059935, 0.05106445, 0.1988544, 0.8684052, -4.537707, 13.26515, 11.43263, 21.02353
5.079933, -0.02632812, 0.1893805, 0.9660336, -0.9706343, 1.070024, 6.524098, 20.97647
5.099935, -0.0700293, 0.13922, 1.001748, -16.7938, -12.00925, -0.9759025, 20.97647
5.119927, -0.08858398, 0.04909058, 0.995943, -30.54381, -15.17998, -12.31737, 20.97647
5.139937, -0.04732422, 0.08171448, 1.003905, -38.37917, -0.9116829, -16.79907, 20.92941
5.159936, 0.01932617, 0.124848, 0.9969285, -42.67795, 3.35661, -9.512488, 20.88235
5.179935, 0.06498047, 0.1506397, 0.9085023, -30.26942, 14.69808, 0.3350732, 20.92941
5.207654, 3.906339e-05, 0.1214362, 1.004634, -27.7999, 25.91759, -4.634439, 21.02353
5.221623, -0.05123047, 0.09903381, 1.112078, -37.61698, 19.85051, -20.9759, 21.11765
5.239943, -0.01363281, 0.09729065, 1.070922, -44.14136, 9.057829, -38.35395, 20.97647
5.259936, -0.06246094, 0.09246094, 1.052146, -53.50112, -13.74705, -53.01858, 20.92941
5.279932, -0.01485351, 0.03082642, 0.9483629, -31.85478, -12.07022, -46.7381, 21.02353
5.299938, -0.02950195, 0.03104858, 0.9412472, -15.39137, 9.423683, -43.87224, 21.02353
5.319931, -0.08052734, 0.02716125, 1.017077, -16.12307, 13.99685, -51.58566, 20.97647
5.339934, -0.1276465, 0.05176208, 1.029445, -14.87307, 19.57612, -72.77469, 20.97647
5.359933, -0.166709, 0.04278137, 0.9769548, -32.40356, 46.03954, -98.71982, 20.97647
5.37994, -0.1264258, 0.006709594, 1.047457, -63.98893, 57.47247, -98.90273, 20.97647
5.407819, -0.2599707, -0.02202026, 1.173527, -102.2816, 27.77734, -117.8357, 20.97647
5.421797, -0.1664648, -0.02514709, 1.092061, -110.4828, 10.21637, -115.0308, 21.07059
5.439945, -0.2167578, -0.05071899, 0.9143335, -99.47673, 24.42368, -117.5918, 20.97647
5.459938, -0.178916, -0.0003179936, 0.9879233, -69.04991, 102.442, -120.9149, 21.02353
5.479937, -0.2204199, -0.005692749, 0.961732, -63.50112, 145.3078, -135.9759, 21.02353
5.499934, -0.345664, -0.08498962, 0.8984606, -50.5743, 113.2347, -143.5064, 21.02353
5.519934, -0.2746191, -0.2113721, 1.035887, -46.61088, 55.58222, -127.3479, 20.92941
5.53994, -0.2360449, -0.2519019, 1.148051, -61.76332, 46.86271, -100.3662, 21.02353
5.559934, -0.1298437, -0.2835785, 1.041936, -56.85478, 103.4481, -75.91493, 20.97647
5.579936, -0.2563086, -0.2894098, 1.082814, -51.88527, 138.6005, -64.02469, 20.97647
5.608017, -0.3835058, -0.3325195, 0.8890162, -48.28771, 114.6676, -85.09176, 20.92941
5.622035, -0.378623, -0.3149982, 0.8506453, -40.60478, 61.37491, -90.21372, 21.07059
5.639939, -0.4091406, -0.3473718, 0.8150435, -35.33039, -18.68607, -75.36615, 20.97647
5.659938, -0.3637305, -0.4009564, 1.075342, -31.306, -36.52144, -42.80517, 21.02353
5.679932, -0.2792578, -0.3386157, 1.042102, -40.60478, -1.186073, -13.9942, 20.88235
5.699934, -0.2069922, -0.2960187, 1.039155, -46.7938, 49.60661, -1.860049, 20.97647
5.719936, -0.2792578, -0.3130249, 0.9820309, -55.36088, 54.78954, -7.164927, 20.92941
5.739934, -0.3463965, -0.3919397, 0.8673343, -47.03771, 28.17368, -3.841756, 20.97647
5.759935, -0.2619238, -0.479107, 0.9365791, -33.47064, 8.90539, 13.20093, 20.92941
5.779933, -0.2838965, -0.5010059, 1.057971, -37.98283, 20.30783, 27.34727, 20.92941
5.808156, -0.2738867, -0.3619989, 1.062465, -68.10478, 77.01515, 32.62166, 20.97647
5.822211, -0.2873144, -0.3101373, 1.036518, -88.34868, 109.942, 25.45703, 20.97647
5.839942, -0.3798437, -0.3322339, 0.9926028, -102.556, 127.1066, 12.65215, 20.92941
5.859934, -0.4701758, -0.4316022, 0.8520406, -104.1109, 113.9054, 0.4875122, 21.07059
5.879936, -0.5185156, -0.5154004, 0.6641738, -79.23284, 77.68588, -1.890537, 20.97647
5.899934, -0.4762793, -0.5568243, 0.8034732, -68.01332, 34.24076, -1.036878, 20.92941
5.919935, -0.5224219, -0.4683996, 0.9004665, -88.10478, 27.59442, 0.03019512, 20.97647
5.939934, -0.411582, -0.4452924, 0.7084251, -99.50723, 45.49076, 4.999708, 20.97647
5.959932, -0.449668, -0.4849426, 0.5910404, -83.5621, 52.83832, 4.176537, 20.92941
5.979933, -0.5732031, -0.58409, 0.563988, -56.24503, 36.52735, 2.286293, 20.92941
6.008285, -0.4469824, -0.6138177, 0.6694174, -57.22064, 27.56393, 3.658244, 20.97647
6.022218, -0.4794531, -0.5911633, 0.7105165, -73.59259, 38.41759, -0.1832195, 20.97647
6.039943, -0.435752, -0.5594897, 0.6081367, -85.08649, 53.29564, -3.414927, 20.97647
6.059934, -0.4516211, -0.5041937, 0.5483928, -69.08039, 54.91149, 1.737512, 20.97647
6.079935, -0.5085059, -0.5353607, 0.475524, -44.65966, 48.93588, 3.810683, 21.11765
6.099933, -0.5495215, -0.5689789, 0.4106801, -20.51332, 50.52125, 1.615561, 20.97647
6.11993, -0.5722266, -0.6076172, 0.3930599, -8.684049, 38.47856, -5.549073, 21.07059
6.139934, -0.5622168, -0.6040625, 0.4630882, -27.64746, 26.31393, -15.61005, 21.07059
6.159935, -0.5624609, -0.5863061, 0.4288581, -40.29991, 11.40539, -21.06737, 20.92941
6.179938, -0.5031348, -0.5020203, 0.4166701, -28.50112, 1.009049, -15.00029, 20.92941
6.208527, -0.5075293, -0.5326935, 0.3820065, -8.043805, 4.301732, -4.939317, 20.97647
6.222566, -0.5021582, -0.5439038, 0.347948, -4.659658, 11.43588, -5.823463, 21.02353
6.239946, -0.4501563, -0.5361023, 0.3706237, -8.592586, 15.1249, -7.683219, 20.92941
6.259938, -0.4860449, -0.5887207, 0.4011879, -16.39746, 4.301732, -8.719806, 20.92941
6.279935, -0.5412207, -0.597226, 0.3753931, -16.73283, 5.15539, -7.378342, 20.92941
6.299937, -0.5146094, -0.594311, 0.4147476, -10.23893, 7.746854, -5.610049, 20.92941
6.319934, -0.4967871, -0.6108606, 0.4605971, -2.647464, -12.25315, -2.25639, 20.97647
6.339935, -0.482627, -0.6040735, 0.3882828, 6.89522, -19.14339, 3.505805, 21.02353
6.359936, -0.4672461, -0.6013458, 0.3419349, 15.1879, -7.984854, 2.133854, 20.97647
6.379936, -0.4506445, -0.6086554, 0.3122492, 19.60863, -9.356806, -7.134439, 21.07059
6.408742, -0.4574805, -0.5638611, 0.3299924, 21.59034, -52.619, -7.286878, 20.97647
6.422836, -0.4691992, -0.5463312, 0.3664402, 27.29156, -76.1556, -17.07346, 20.88235
6.43994, -0.4345313, -0.5037158, 0.3475119, 43.02327, -88.59462, -11.64664, 21.02353
6.459939, -0.4064551, -0.5059057, 0.41519, 73.4501, -84.02144, -5.914927, 21.02353
6.479937, -0.3927832, -0.4968903, 0.5701323, 100.8281, -91.58242, -1.494195, 21.02353
6.499934, -0.3461523, -0.4774176, 0.6279918, 112.9623, -89.57023, 2.255805, 20.92941
6.519934, -0.3183203, -0.4840228, 0.5150959, 115.1574, -58.6251, 1.097268, 21.02353
6.539933, -0.3495703, -0.5095575, 0.5410037, 116.3464, -44.32632, -4.725903, 21.02353
6.559937, -0.3122168, -0.4686926, 0.6436468, 114.4867, -61.49095, 1.127756, 20.92941
6.579934, -0.3217383, -0.3831964, 1.03653, 88.35864, -99.08242, 17.80458, 21.02353
6.608809, -0.3866797, -0.3985089, 1.115662, 47.35254, -129.9361, 54.17654, 21.02353
6.622863, -0.4560156, -0.4557092, 0.9191774, 60.4318, -129.6312, 46.12776, 20.97647
6.639942, -0.4508887, -0.5806482, 0.531746, 139.2123, -91.24705, 13.23141, 20.97647
6.659935, -0.338584, -0.4401941, 0.6528337, 222.0782, -40.51534, -14.20761, 20.97647
6.679934, -0.246543, -0.3369354, 0.935254, 216.0111, -32.40559, -19.57346, 20.97647
6.699936, -0.1369238, -0.1805603, 1.290951, 149.7916, -85.21048, 6.707025, 21.07059
6.719931, -0.2199316, -0.1544861, 1.500325, 44.85254, -144.7532, 9.603366, 20.97647
6.739929, -0.2648535, -0.2029077, 1.171225, 5.980585, -149.1434, -14.75639, 21.02353
6.759932, -0.2909765, -0.3099109, 0.680616, 90.9806, -86.91779, -36.89054, 20.88235
6.779937, -0.2250586, -0.1347876, 0.8853153, 169.4867, -33.96046, -27.16493, 21.02353
6.80903, 0.001748048, -0.09382996, 1.264922, 164.7306, -30.14949, 4.054585, 21.07059
6.823043, -0.08931641, -0.1345428, 1.429375, 120.9806, -41.70436, 3.109464, 21.07059
6.83994, -0.1967383, -0.1119116, 1.468565, 72.47449, -97.4056, 8.505805, 21.02353
6.85994, -0.189414, -0.0870166, 1.189465, 79.7001, -164.8141, 0.2436098, 20.97647
6.879932, -0.06661133, 0.007162475, 0.9103081, 134.4867, -179.3873, -21.76859, 21.07059
6.899936, 0.1538477, 0.1543463, 0.9117087, 177.7794, -112.3751, -39.69542, 20.97647
6.919938, 0.1350488, 0.09392822, 1.284429, 152.505, -72.58852, -40.732, 21.11765
6.939933, 0.0134668, 0.01162781, 1.307118, 91.34645, -31.1251, -31.55517, 20.97647
6.959932, -0.1256933, 0.01788819, 1.145676, 70.58424, -42.52754, -17.25639, 21.07059
6.979935, -0.03267578, 0.1701062, 1.06221, 89.18181, -142.2532, -11.34176, 20.97647
7.009044, 0.3518457, 0.3769104, 1.055703, 128.9074, -155.9117, -35.67102, 21.07059
7.023034, 0.4604883, 0.3725226, 1.107016, 140.7367, -111.7349, -34.2381, 20.97647
7.039943, 0.3076563, 0.2507092, 1.14941, 128.9989, -80.54584, -36.2198, 21.02353
7.059938, 0.1055078, 0.1735254, 1.174324, 94.63912, -82.28364, -52.74419, 21.02353
7.079936, 0.1794824, 0.2351489, 1.052789, 84.82205, -68.3812, -57.65274, 21.02353
7.099931, 0.2822656, 0.3673511, 1.045151, 68.84645, -74.93608, -50.27468, 21.02353
7.119929, 0.3379297, 0.4263184, 1.041576, 55.52327, -77.71047, -48.44542, 21.02353
7.139932, 0.315957, 0.4287725, 0.9437829, 53.26717, -78.89949, -46.52468, 20.97647
7.159932, 0.3052149, 0.4151434, 0.9097498, 52.65742, -87.58852, -35.61005, 21.02353
7.17993, 0.3288965, 0.3388739, 0.7445612, 57.84034, -49.3568, -27.34786, 20.97647
7.209285, 0.399209, 0.4411743, 0.7848617, 65.40132, -9.265341, -18.44542, 20.97647
7.223354, 0.3745508, 0.4614063, 0.8208364, 57.50498, -17.3751, -16.40273, 20.97647
7.239937, 0.3774805, 0.4548108, 0.8133242, 46.07205, -31.42998, -17.80517, 20.97647
7.259937, 0.3840723, 0.4219568, 0.798264, 41.62083, -35.6068, -19.45151, 20.92941
7.279936, 0.3774805, 0.3866266, 0.7722518, 34.30376, -20.69827, -15.64054, 21.07059
7.299935, 0.3103418, 0.4307141, 0.7914879, 25.91961, -9.936073, -5.549073, 21.11765
7.319934, 0.3911524, 0.5456507, 0.7800184, 9.608635, -2.862902, -0.274683, 21.02353
7.339938, 0.4541406, 0.5378595, 0.691464, 5.462293, 13.41759, 1.310683, 21.07059
7.35993, 0.3369531, 0.4833344, 0.6517901, 17.59644, 9.515146, -10.36615, 21.02353
7.379931, 0.3352442, 0.5398059, 0.7360163, 17.56595, -18.35071, -18.90273, 21.02353
7.409424, 0.3833399, 0.5286279, 0.6860432, 5.462293, -38.71656, -27.53078, 20.97647
7.423473, 0.3891992, 0.5220404, 0.6583514, 12.07815, -38.68607, -28.50639, 21.02353
7.439942, 0.4265527, 0.5149597, 0.6471846, 19.15132, -34.3568, -27.86615, 20.97647
7.459935, 0.4018945, 0.4969525, 0.5818319, 31.68181, -19.05193, -25.70151, 20.97647
7.479933, 0.3086328, 0.5176496, 0.683612, 35.4318, -10.8812, -22.07346, 20.97647
7.499938, 0.2842188, 0.5612531, 0.6746527, 24.39522, -24.38729, -21.00639, 20.97647
7.519935, 0.3140039, 0.5872925, 0.5852971, 19.48668, -24.69217, -17.77468, 21.07059
7.539932, 0.3191309, 0.5692743, 0.554847, 19.82205, -15.08851, -10.21371, 20.97647
7.559932, 0.3269434, 0.5921704, 0.5752797, 19.79156, -1.338512, -3.994195, 20.97647
7.57993, 0.3164453, 0.5802216, 0.5733316, 20.27937, 11.49686, -2.317366, 21.02353
7.609607, 0.2573633, 0.5768164, 0.6331277, 2.16961, 8.570024, -9.817367, 20.97647
7.623711, 0.2624902, 0.5812213, 0.6399713, -6.153562, 5.612708, -10.54907, 21.11765
7.639944, 0.2788477, 0.5911645, 0.6149089, -13.89746, 0.9480732, -9.390537, 21.07059
7.659936, 0.2695703, 0.6074939, 0.619306, -17.43405, -3.960464, -5.914927, 20.97647
7.679933, 0.2991113, 0.6045898, 0.6065622, -16.61088, 7.198073, -1.463707, 21.02353
7.699936, 0.3113184, 0.6228412, 0.6055372, -15.75722, 22.47247, 1.950927, 20.97647
7.719932, 0.2786035, 0.6089892, 0.6282435, -14.87307, 11.52734, 5.731415, 21.07059
7.739936, 0.2029199, 0.5724463, 0.63011, -19.93405, 5.399293, 7.316781, 20.97647
7.759936, 0.2900781, 0.5648999, 0.6411219, -18.5621, 10.3688, 7.194829, 21.16471
7.779928, 0.315957, 0.5561127, 0.692317, -13.16576, 25.30783, 5.731415, 20.97647
7.809797, 0.2939844, 0.575592, 0.6720622, -24.65966, 51.131, 10.15215, 20.97647
7.82382, 0.2136621, 0.5456402, 0.7286047, -29.08039, 51.74076, 9.481415, 21.07059
7.839932, 0.2556543, 0.5278925, 0.6806402, -30.26942, 58.17369, 8.627756, 20.97647
7.859935, 0.2934961, 0.4877185, 0.7294398, -31.42795, 65.61271, 14.0241, 20.97647
7.879936, 0.3242578, 0.5052044, 0.8165574, -31.18405, 71.64929, 19.5119, 21.11765
7.899934, 0.2827539, 0.5315179, 0.9661456, -46.0621, 74.82002, 12.59117, 21.11765
7.919933, 0.2500391, 0.5237061, 0.9448142, -75.08649, 79.881, 10.97532, 21.07059
7.939935, 0.2441797, 0.5188257, 0.9603889, -81.97673, 72.50295, 18.5058, 21.02353
7.959936, 0.208291, 0.5308337, 0.9278493, -112.0377, 42.92978, 23.07898, 20.92941
7.979931, 0.2876367, 0.4762475, 0.7727489, -109.2328, 43.78344, 29.63385, 20.88235
8.009964, 0.3000879, 0.4504254, 0.9223214, -88.07429, 69.08832, 37.19483, 21.11765
8.024023, 0.2541895, 0.4002777, 1.053236, -93.22673, 66.74076, 37.37776, 20.97647
8.039939, 0.2175684, 0.3890497, 1.155961, -101.245, 48.29564, 36.88995, 20.97647
8.059935, 0.2278223, 0.3849237, 1.05722, -111.306, 34.48466, 36.79849, 21.02353
8.079936, 0.2659082, 0.3678961, 0.9568683, -107.9523, 29.75905, 36.5241, 21.07059
8.099934, 0.3025293, 0.3712787, 0.8119702, -92.89137, 59.36271, 38.29239, 21.07059
8.11994, 0.194375, 0.2811841, 0.7673295, -66.21454, 90.6432, 43.018, 21.02353
8.139939, 0.09549805, 0.2614667, 1.089802, -58.89747, 77.1066, 51.64606, 21.02353
8.159937, 0.06913086, 0.2558539, 1.199383, -74.78161, 72.07612, 56.46312, 21.02353
8.179931, 0.1296777, 0.2485455, 1.217491, -76.88527, 84.57612, 44.69483, 21.02353
8.210136, 0.1384668, 0.2802619, 0.9465474, -67.64747, 82.80784, 33.07898, 20.97647
8.224258, 0.1130762, 0.2732245, 0.7189537, -63.37917, 90.49075, 36.43264, 21.07059
8.239939, 0.0525293, 0.1586981, 0.6612262, -29.8121, 96.74075, 36.21922, 21.07059
8.259939, 0.09574219, 0.1667163, 0.8812579, 8.602537, 88.23466, 43.71922, 20.97647
8.279933, -0.001914062, 0.1425977, 1.085055, -6.245025, 92.65539, 50.24362, 21.07059
8.299935, -0.05318359, 0.1786896, 1.248764, -37.95234, 101.6188, 44.99971, 20.97647
8.31993, -0.03926758, 0.09363464, 1.084976, -52.70844, 87.41149, 16.70702, 21.07059
8.339938, -0.01241211, 0.2512091, 0.8657399, -28.37917, 70.70417, 6.859464, 20.97647
8.359936, -0.06514648, 0.2858081, 0.8023442, -1.85478, 30.42978, 0.365561, 21.02353
8.379935, -0.08785156, 0.2492932, 0.8265748, 8.694, -12.1312, -1.158829, 21.02353
8.410291, -0.06392578, 0.217395, 1.022393, 6.62083, -11.21656, 3.627756, 21.02353
8.424424, -0.09737305, 0.1652808, 1.02563, -9.507219, 6.862708, 4.877756, 20.92941
8.439943, -0.1188574, 0.1820654, 0.9036678, -27.92186, 32.96027, 9.81678, 21.07059
8.459936, -0.119834, 0.1482172, 0.8266972, -38.98893, 51.16149, 13.23141, 20.97647
8.479933, -0.1293555, 0.1189752, 0.7263615, -31.70234, 45.94808, 15.97532, 21.16471
8.499939, -0.1825781, 0.09924316, 0.7239061, -18.53161, 6.039537, 11.40215, 21.07059
8.519931, -0.2069922, 0.1438306, 0.7797857, -8.257219, -39.02144, 2.987512, 21.07059
8.539937, -0.2065039, 0.1243317, 0.8584616, -2.891366, -55.45436, -3.292976, 20.97647
8.559933, -0.1281348, 0.139682, 0.8638722, -5.909658, -38.68607, -2.103951, 21.07059
8.579934, -0.1166602, 0.1063483, 0.7970572, -7.677951, 1.67978, 1.066781, 20.97647
8.610462, -0.1249609, 0.0632312, 0.7560154, -6.946244, 34.60661, 16.06678, 20.97647
8.624601, -0.1073828, 0.03934631, 0.7739404, -7.312098, 21.25295, 16.64605, 21.02353
8.63994, -0.086875, 0.04906921, 0.8207422, -12.00722, -6.216561, 14.32898, 21.02353
8.65994, -0.1217871, 0.05468445, 0.9165245, -10.056, -37.80193, 15.06068, 20.97647
8.679938, -0.1254492, 0.0690747, 0.9175508, 9.090342, -45.6373, 15.06068, 21.02353
8.699931, -0.09444336, 0.05979675, 1.02216, 26.49888, -4.234854, 9.81678, 21.02353
8.719929, -0.1134863, 0.08901794, 1.175843, 27.56595, 31.74076, -0.579561, 21.02353
8.739933, -0.1579199, 0.09803284, 1.232738, 14.7001, 25.49076, -5.244195, 20.97647
8.759939, -0.1386328, 0.099021, 1.17113, -5.269415, -12.22266, 0.1826341, 20.97647
8.779934, -0.1271582, 0.08075684, 1.006413, -17.19015, -20.94217, 6.615561, 21.07059
8.810602, -0.1349707, 0.08415039, 0.8719946, -40.87917, 29.36271, -7.683219, 21.07059
8.824723, -0.1300879, 0.1043756, 0.8623029, -49.01942, 45.33832, -14.26859, 20.97647
8.83994, -0.03780273, 0.1321314, 0.8873933, -43.25722, 18.93588, -1.921024, 20.97647
8.859934, -0.05855469, 0.1178082, 0.9093163, -18.806, -44.93608, 17.43873, 21.02353
8.87994, -0.09126953, 0.002854004, 0.8661786, 14.39522, -64.8751, 29.23751, 21.02353
8.89993, -0.2213965, -0.0451593, 0.8875355, 37.56595, -19.47876, 21.768, 21.11765
8.919937, -0.2194433, -0.001796875, 1.031799, 34.57815, 19.33222, 8.261903, 21.02353
8.93993, -0.2382422, -0.03107117, 1.076463, 18.4501, 22.74686, -7.866147, 21.02353
8.959932, -0.1061621, 0.0513385, 1.051054, 8.450098, 11.131, -2.042975, 21.07059
8.979938, -0.1403418, 0.08172241, 1.19879, 2.444, -13.3812, 0.2131219, 21.02353
9.010802, -0.09371094, 0.1007233, 1.198818, -30.57429, -39.69217, 9.999707, 21.07059
9.024995, -0.1381445, 0.08682373, 1.129956, -45.42186, -19.90559, 5.030195, 21.16471
9.03994, -0.1134863, 0.06515747, 1.111352, -60.60478, -5.454366, 2.286293, 20.97647
9.059936, -0.06929688, 0.05639465, 1.07437, -66.15356, -11.52144, -0.3051707, 21.11765
9.079934, -0.07198242, 0.005981445, 1.033826, -50.75722, -7.954366, -7.408829, 20.97647
9.099932, -0.1039648, -0.03467285, 1.040818, -27.0682, -0.9421706, -11.03688, 21.02353
9.119932, -0.1151953, -0.01056763, 1.20157, -29.90356, -15.54583, -8.628342, 20.97647
9.139936, -0.1105566, -0.2809076, 1.048395, -49.65966, -18.16778, -13.78078, 21.02353
9.159933, -0.100791, -0.1050214, 1.008271, -17.49502, -0.3629024, -22.80517, 21.02353
9.179936, -0.1230078, -0.04273621, 1.001347, -9.049902, 13.17368, -31.67712, 21.02353
9.211009, -0.05269531, -0.08848877, 0.8800907, 24.91351, -8.808025, -18.96371, 21.07059
9.225192, -0.05074219, -0.06805969, 1.046652, 25.27937, -7.832415, -19.482, 21.02353
9.239938, -0.05123047, -0.003981324, 1.153768, 19.21229, -4.295829, -19.20761, 20.97647
9.259935, -0.1137305, -0.05561462, 1.146765, 14.88303, 12.19808, -28.53688, 20.97647
9.279933, -0.1357031, -0.07388794, 1.085825, 19.60863, 12.50295, -26.982, 20.97647
9.29993, -0.1156836, -0.03762207, 1.002266, 23.9379, -5.332415, -21.31127, 21.07059
9.319931, -0.08199219, -0.04807373, 0.9296049, 30.43181, -10.42388, -16.40273, 21.07059
9.339934, -0.1083594, -0.04125, 1.000007, 37.444, -0.02753651, -15.67102, 21.07059
9.359933, -0.07076172, 0.02790405, 1.171656, 20.58424, -10.08851, -15.54907, 21.02353
9.37993, -0.09761719, 0.05785949, 1.181277, -7.220634, -19.78363, -13.84176, 21.07059
9.411144, -0.1261816, 0.005255737, 1.088216, 22.74888, 0.09441471, -10.15273, 21.07059
9.425295, -0.1098242, 0.01353027, 1.105341, 23.9379, 6.313927, -8.994196, 21.02353
9.43994, -0.114707, 0.009649048, 1.039878, 21.62083, 9.941977, -10.85395, 21.07059
9.459936, -0.1029883, 0.01352234, 0.9350218, 15.43181, 8.234659, -14.78688, 21.02353
9.479934, -0.05074219, 0.005010986, 0.8633101, 19.05985, 3.051732, -15.2442, 21.07059
9.499931, -0.1105566, 0.01208496, 0.93736, 27.87083, 18.96637, -16.79907, 21.02353
9.519937, -0.1034766, 0.06540161, 1.103988, 22.04766, 21.6188, -17.65273, 21.02353
9.539934, -0.06441406, 0.1068115, 1.109803, -4.08039, 25.18588, -23.38444, 20.97647
9.559934, -0.1000586, 0.05957031, 1.045318, -16.5499, 20.24686, -19.87834, 21.07059
9.579937, -0.1222754, 0.04057922, 0.9546737, -12.556, 7.350513, -13.44542, 20.97647
9.611382, -0.07466797, 0.03252808, 0.9133455, 11.25498, 5.551732, -11.37225, 21.07059
9.625612, -0.1061621, 0.04714661, 0.9674652, 14.57815, 2.015146, -10.39664, 21.11765
9.639938, -0.09908203, 0.0527356, 1.066584, 7.474488, -4.448268, -7.347854, 21.02353
9.659931, -0.1159277, 0.06322632, 1.072404, -12.70844, -3.015341, -13.29298, 21.11765
9.679934, -0.1274023, 0.0142511, 0.9345879, 24.97449, 13.47856, -5.488098, 21.02353
9.699932, -0.07710938, 0.08097778, 1.07536, 18.66351, 4.850513, -5.244195, 21.02353
9.719933, -0.1291113, 0.006236572, 0.9096517, 20.82815, 4.759049, -3.018585, 21.02353
9.739932, -0.1369238, 0.06686585, 0.9610124, 23.48059, 7.716366, 0.5484878, 21.02353
9.75994, -0.118125, 0.06612549, 0.9887093, 22.77937, 5.826122, -0.884439, 21.11765
9.779929, -0.1327734, 0.06807617, 0.9999915, 22.2001, 5.887098, -0.6405365, 21.11765
9.811467, -0.1173926, 0.08340637, 0.9434635, 15.27937, -7.009244, -1.70761, 21.07059
9.825734, -0.08760742, 0.09731018, 0.934494, 20.91961, -7.039732, -3.628341, 20.97647
9.839944, -0.1332617, 0.1029303, 0.9677017, 24.82205, -3.808024, -10.91493, 21.11765
9.859937, -0.1317969, 0.1155957, 1.048907, 16.16351, -5.454366, -14.7259, 21.16471
9.879932, -0.1845312, 0.1109412, 1.092909, -5.818195, -8.350708, -12.83566, 21.07059
9.899936, -0.1359473, 0.09074829, 0.993573, -17.73893, -1.612902, -10.36615, 21.02353
9.919933, -0.04292969, 0.09435974, 0.9565643, -32.70844, -13.28973, -3.628341, 21.07059
9.939936, -0.05855469, 0.1970117, 1.083165, -78.83649, -35.45437, -8.140537, 21.02353
9.959936, -0.04512695, 0.07798523, 0.9617697, -67.49503, -32.34461, -8.65883, 21.11765
9.979932, -0.09883789, 0.005527344, 0.985693, -35.26942, -18.71656, -14.02468, 21.11765
10.0117, -0.132041, -0.04855835, 0.9843938, 4.852537, -24.8751, -11.06737, 20.97647
10.02598, -0.1252051, -0.02591431, 0.9801186, 9.486683, -37.92388, -12.01249, 21.07059
10.03997, -0.07857422, -0.01257446, 0.9544206, 11.74278, -54.05193, -7.25639, 20.97647
10.05994, 0.005166017, 0.07198059, 0.9983589, 10.98059, -63.10681, -7.042975, 21.07059
10.07994, 0.005166017, -0.003725586, 1.023762, 3.084244, -79.3873, -0.1222439, 21.16471
10.09994, -0.08541016, 0.08734253, 0.9521717, -2.00722, -59.93608, -4.177122, 21.02353
10.11994, 0.01712891, 0.0236084, 0.9262213, -16.73283, 4.027342, -19.84785, 20.97647
10.13994, -0.002402343, -0.0003399663, 1.000311, -0.02551222, 15.52124, -16.79907, 21.07059
10.15993, -0.002158202, 0.03252258, 0.9965658, -1.641366, 13.08222, -8.262488, 20.97647
10.17993, -0.02461914, -0.00670166, 1.024175, -0.7267318, 9.881001, -9.268586, 21.11765
10.21184, 0.01444336, 0.03522339, 1.009815, -1.184049, 1.496854, -1.219805, 21.02353
10.22612, 0.01419922, 0.01987854, 1.004865, -0.08648777, 0.7651464, -0.4271219, 20.92941
10.24011, 0.01297852, 0.02059631, 1.002256, -0.08648777, 0.826122, -0.3356586, 21.16471
10.25994, -0.0004492178, 0.01302917, 1.015206, 0.1574147, 0.2468537, 0.06068292, 21.07059
10.27994, 0.002236329, 0.02401062, 0.9976024, -0.1779512, 0.4297805, 0.518, 21.02353
10.29994, 0.004433595, 0.02571289, 0.9985916, 0.004975557, 0.6736829, 5.457025, 21.11765
10.31993, -0.003623046, 0.02181702, 1.00099, 0.03546345, 0.2163659, 9.359464, 21.02353
10.33994, -0.008261718, 0.02302185, 0.9903699, -0.05599999, 0.1249025, 13.99361, 21.11765
10.35993, 0.001015626, 0.02668762, 1.000088, -0.1169757, 0.1858781, 20.70093, 21.07059
10.37994, 0.00663086, 0.02082031, 0.998837, -0.02551222, 0.5517318, 27.89605, 20.97647
10.41217, -0.01631836, -8.789078e-05, 0.9937738, -0.2999024, 0.2773415, 12.22532, 21.02353
10.42646, -0.009970702, 0.01843262, 0.9973148, -0.208439, 0.03343904, 5.944829, 20.92941
10.44047, -0.002158202, 0.01428833, 1.002331, -0.08648777, 0.06392682, 1.341171, 20.97647
10.45994, -0.003134765, 0.01816162, 1.004194, -0.1169757, 0.4907561, 0.1521463, 21.02353
10.47994, -0.003378905, 0.02475159, 1.002705, -0.1169757, 0.3992927, -0.09175611, 21.11765
10.49994, -0.009726562, 0.01815491, 0.9973174, -0.05599999, 0.09441471, 0.09117073, 21.11765
10.51993, -0.0006933585, 0.02012817, 1.003694, 0.1574147, 0.1249025, 0.2436098, 21.02353
10.53993, 0.005410157, 0.01866882, 1.001042, -0.08648777, 0.002951264, 0.5789756, 21.02353
10.55993, -0.0009374991, 0.01963806, 1.001264, 0.096439, 0.03343904, 0.1216585, 20.97647
10.57993, 0.001015626, 0.02230285, 1.002256, 0.03546345, 0.1553903, 0.06068292, 21.16471
10.61243, 0.0007714853, 0.0188916, 1.003209, 0.096439, 0.2773415, 0.09117073, 21.16471
10.62673, -0.00533203, 0.01987732, 1.00859, 0.2183902, -0.05802441, -0.0002926588, 21.07059
10.64065, -0.006308593, 0.01816589, 1.006868, 0.004975557, 0.1249025, -0.03078049, 21.02353
10.65994, 0.003701173, 0.02036072, 0.9993152, 0.03546345, -0.4848536, 0.03019512, 21.07059
10.67993, -0.003134765, 0.02596252, 1.001259, -0.08648777, -0.3019269, -0.09175611, 21.07059
10.69993, -0.002402343, 0.01938416, 0.9912686, -0.05599999, -0.119, 0.1521463, 21.11765
10.71993, -0.003623046, 0.01304993, 0.9993024, 0.004975557, 0.2468537, -0.06126827, 21.07059
10.73994, -0.003378905, 0.01841614, 0.9910271, 0.1269268, 0.09441471, -0.06126827, 21.11765
10.75993, -0.002646483, 0.02377686, 0.98766, 0.004975557, 0.09441471, -0.0002926588, 21.02353
10.77993, -0.0006933585, 0.02231384, 0.9992884, -0.08648777, 0.1858781, -0.03078049, 21.02353
10.81255, -0.01021484, 0.02059204, 0.988826, -0.02551222, -0.1799756, -0.03078049, 21.02353
10.82686, -0.006552733, 0.01645142, 0.9912394, 0.06595123, -0.2409512, 0.1826341, 21.07059
10.84086, 0.008583985, 0.02377502, 0.9953872, 0.1574147, 0.06392682, 0.1521463, 21.11765
10.85994, 0.00272461, 0.02010681, 0.9963943, -0.02551222, -0.05802441, 1.188732, 21.07059
10.87994, -0.004355468, 0.01815369, 0.9969247, -0.02551222, -0.05802441, 0.1826341, 21.16471
10.89994, 0.001015626, 0.01864807, 0.9985648, 0.03546345, 0.3383171, 0.1216585, 21.07059
10.91994, -0.0009374991, 0.02206299, 1.000818, -0.1474634, 0.06392682, 0.06068292, 21.07059
10.93993, -0.0009374991, 0.01864624, 1.005401, -0.1169757, 0.2163659, 0.1216585, 21.07059
10.95994, -0.003378905, 0.01866089, 1.000086, -0.2389269, -0.05802441, 0.09117073, 21.07059
10.97993, -0.0004492178, 0.02036438, 1.006405, 0.004975557, -0.1799756, 0.2436098, 21.16471
11.01269, -0.006308593, 0.01741638, 1.003244, -0.1169757, -0.02753651, 0.2131219, 21.21176
11.02695, -0.002158202, 0.02207153, 1.002495, -0.1169757, -0.2409512, 0.1521463, 21.11765
11.04089, -0.003867187, 0.02157593, 1.000293, -0.08648777, -0.119, 0.03019512, 21.07059
11.05993, 0.001015626, 0.01719543, 1.001546, 0.096439, -0.271439, -0.0002926588, 21.02353
11.07993, -0.008261718, 0.01620483, 0.9998378, 0.1574147, -0.08851218, 0.09117073, 21.11765
11.09994, 0.002968751, 0.02280212, 1.012736, 0.03546345, 0.1858781, 0.03019512, 20.97647
11.11993, -0.007285155, 0.01961914, 0.9893143, 0.096439, -0.1494877, -0.03078049, 21.11765
11.13994, -0.0006933585, 0.02769226, 0.9927182, -0.1169757, 0.1249025, 0.1826341, 21.16471
11.15994, 0.001992188, 0.01938965, 0.9995669, 0.248878, -0.08851218, 0.1216585, 20.97647
11.17993, 3.906339e-05, 0.01669983, 0.9932039, 0.06595123, -0.05802441, -0.03078049, 21.07059
11.21291, 0.004433595, 0.01889709, 0.9968878, 0.03546345, 0.002951264, -0.0002926588, 21.11765
11.22726, 0.00638672, 0.01889343, 1.003944, -0.05599999, 0.09441471, 0.1826341, 21.11765
11.24113, 0.000283204, 0.01791077, 0.9949562, -0.05599999, -0.05802441, -0.0002926588, 21.07059
11.25994, -0.0009374991, 0.01354858, 1.004232, -0.1474634, -0.1799756, -0.09175611, 21.02353
11.27994, 0.004189454, 0.02181702, 1.002778, -0.05599999, -0.05802441, -0.03078049, 21.11765
11.29994, -0.002646483, 0.02230774, 1.003707, -0.05599999, -0.02753651, -0.03078049, 21.02353
11.31993, -0.003134765, 0.01670105, 0.9978465, 0.06595123, -0.1799756, 0.03019512, 21.02353
11.33994, 0.000283204, 0.01914123, 0.9942123, 0.1574147, 0.09441471, -0.0002926588, 21.11765
11.35994, 0.002236329, 0.02328857, 1.001006, 0.06595123, -0.2104634, -0.09175611, 21.21176
11.37994, -0.003623046, 0.01743408, 0.9956619, -0.02551222, 0.2163659, -0.0002926588, 21.07059
11.41306, 0.001503907, 0.0169281, 0.9981416, 0.1879025, -0.08851218, -0.09175611, 21.11765
11.42731, -0.003623046, 0.01595398, 0.9927156, 0.03546345, 0.09441471, 0.2131219, 21.07059
11.44119, -0.0006933585, 0.01669006, 0.999558, 0.096439, 0.06392682, 0.2740976, 21.02353
11.45993, 0.001503907, 0.02156982, 0.995695, -0.1169757, 0.03343904, 0.2131219, 20.97647
11.47993, -0.006064452, 0.01841125, 0.9997996, 0.004975557, -0.1494877, 0.06068292, 21.07059
11.49994, -0.002402343, 0.01864807, 1.003972, -0.08648777, 0.03343904, -0.06126827, 21.11765
11.51993, -0.0002050772, 0.01913147, 1.002979, 0.096439, 0.06392682, 0.1216585, 21.02353
11.53993, -0.007041015, 0.0157312, 0.9957002, -0.05599999, 0.1249025, -0.0002926588, 21.21176
11.55993, 0.002968751, 0.01426636, 1.000831, 0.06595123, 0.03343904, 0.03019512, 21.11765
11.57993, -0.003867187, 0.02645386, 0.9876907, 0.1269268, -0.05802441, -0.0002926588, 21.11765
11.61326, -0.004111327, 0.0171936, 1.006408, 0.06595123, -0.05802441, -0.0002926588, 21.16471
11.62753, -0.004599608, 0.02182922, 0.9980893, 0.248878, 0.09441471, 0.1521463, 21.07059
11.6414, -0.002158202, 0.02109558, 1.000308, -0.05599999, 0.2163659, -0.0002926588, 21.07059
11.65994, -0.0002050772, 0.0186554, 1.004682, -0.05599999, 0.002951264, -0.0002926588, 21.16471
11.67993, -0.003867187, 0.01597412, 1.002502, 0.1269268, -0.119, -0.0002926588, 21.16471
11.69994, 0.002236329, 0.02083984, 1.002761, 0.096439, -0.02753651, 0.06068292, 21.07059
11.71994, 3.906339e-05, 0.01986633, 1.012977, -0.2999024, 0.2163659, -0.09175611, 21.07059
11.73993, -0.00118164, 0.02329895, 0.9985496, -0.08648777, 0.06392682, 0.1521463, 21.07059
11.75994, -0.001669921, 0.01549805, 1.004456, 0.03546345, -0.02753651, 0.1521463, 21.11765
11.77993, -0.003867187, 0.01669556, 0.9973429, -0.05599999, 0.03343904, 0.09117073, 21.02353
11.81345, 0.001015626, 0.02108887, 0.9965964, -0.02551222, -0.05802441, -0.0002926588, 21.07059
11.82785, -0.002402343, 0.02084839, 1.010781, 0.03546345, 0.1858781, -0.06126827, 21.07059
11.84174, 0.004921876, 0.02158691, 1.004179, -0.08648777, -0.02753651, -0.03078049, 21.07059
11.85994, -0.002402343, 0.01572388, 0.9985776, -0.02551222, 0.03343904, -0.0002926588, 21.11765
11.87993, -0.001669921, 0.01426636, 1.004192, 0.004975557, 0.002951264, -0.06126827, 21.02353
11.89993, -0.008749999, 0.01890503, 0.9910679, -0.02551222, 0.06392682, -0.06126827, 21.07059
11.91994, -0.001669921, 0.01694702, 0.9929522, -0.1169757, 0.2163659, 0.2131219, 21.16471
11.93994, 0.001015626, 0.01889648, 1.001746, -0.02551222, -0.2409512, -0.0002926588, 21.07059
11.95994, 0.001015626, 0.02451538, 0.9978872, -0.02551222, 0.1249025, 0.3350732, 21.07059
11.97993, -0.0002050772, 0.02329285, 0.9846832, 0.06595123, -0.2104634, -0.09175611, 21.07059
12.01358, -0.004355468, 0.01791443, 0.9927807, 0.1269268, 0.09441471, -0.0002926588, 21.07059
12.0279, 3.906339e-05, 0.01767456, 0.9983742, -0.08648777, -0.08851218, 0.2436098, 21.07059
12.04177, -0.003623046, 0.01670593, 1.000032, -0.08648777, 0.03343904, 0.1826341, 21.07059
12.05994, 0.00272461, 0.02328796, 1.001755, -0.08648777, 0.03343904, 0.06068292, 21.02353
12.07994, -0.006064452, 0.0237738, 0.999558, 0.1879025, 0.1553903, 0.1521463, 21.07059
12.09993, 0.002968751, 0.01522461, 1.006928, -0.02551222, 0.2163659, -0.06126827, 21.11765
12.11994, 0.000283204, 0.01766663, 0.9917531, 0.2183902, 0.2773415, 0.2436098, 21.16471
12.13993, -0.003623046, 0.02157837, 0.9941907, 0.096439, 0.002951264, -0.0002926588, 21.02353
12.15994, -0.004111327, 0.02256165, 0.9951953, 0.03546345, -0.08851218, 0.03019512, 21.11765
12.17993, 0.004921876, 0.02280518, 1.003242, 0.1269268, -0.1494877, 0.09117073, 21.02353
12.21372, 0.001503907, 0.02085388, 1.003778, 0.1269268, -0.08851218, 0.2740976, 21.02353
12.22801, -0.002158202, 0.0213446, 0.9983895, 0.03546345, -0.08851218, -0.0002926588, 21.07059
12.24189, 0.000283204, 0.02182678, 0.9990735, 0.06595123, -0.1494877, 0.1216585, 21.07059
12.25994, 0.003945313, 0.01864746, 0.9995796, -0.1169757, 0.03343904, 0.09117073, 21.16471
12.27993, -0.002890624, 0.01719116, 1.00639, 0.096439, -0.05802441, -0.03078049, 21.07059
12.29994, -0.00142578, 0.01987549, 1.00663, 0.03546345, 0.09441471, 0.1216585, 21.11765
12.31993, 0.001259767, 0.01938049, 0.9983526, 0.1574147, -0.119, 0.06068292, 21.02353
12.33994, -0.007529296, 0.0188855, 0.9983729, -0.08648777, 0.03343904, 0.03019512, 21.02353
12.35994, 0.001748048, 0.01719727, 0.993719, -0.1779512, -0.1494877, -0.0002926588, 21.11765
12.37994, 0.001015626, 0.01743652, 0.9951979, -0.1779512, -0.02753651, 0.3960488, 21.11765
12.41392, 0.0007714853, 0.01719299, 1.002984, -0.08648777, 0.1553903, 0.1216585, 21.07059
12.42825, 0.000283204, 0.01817505, 0.9937279, 0.096439, -0.02753651, -0.06126827, 21.02353
12.44208, 0.003212892, 0.02450867, 0.9978974, 0.1269268, 0.002951264, 0.09117073, 21.02353
12.45994, -0.004843749, 0.02303284, 1.004227, 0.03546345, 0.1249025, 0.2131219, 21.07059
12.47993, 0.002236329, 0.01670227, 1.002498, 0.03546345, 0.1553903, 0.1826341, 21.16471
12.49993, -0.003867187, 0.01278931, 0.9997766, -0.02551222, 0.002951264, 0.09117073, 21.07059
12.51994, -0.00142578, 0.0240094, 0.9932307, -0.1169757, 0.03343904, 0.03019512, 21.07059
12.53993, -0.005820312, 0.01937683, 0.9995834, -0.05599999, 0.002951264, 0.06068292, 20.97647
12.55993, 0.001015626, 0.01913452, 0.9964109, -0.1169757, -0.05802441, -0.09175611, 21.11765
12.57993, -0.0004492178, 0.01793701, 1.006863, 0.03546345, 0.1249025, 0.06068292, 21.11765
12.6141, -0.004599608, 0.01743347, 0.9957052, 0.004975557, 0.002951264, 0.09117073, 21.07059
12.62847, -0.0009374991, 0.02254944, 0.9990799, 0.004975557, 0.1249025, 0.2131219, 21.02353
12.64232, -0.0009374991, 0.0213446, 0.9953808, -0.1169757, 0.002951264, 0.1521463, 21.07059
12.65994, -0.003867187, 0.01572205, 1.001034, -0.08648777, 0.09441471, 0.09117073, 21.02353
12.67994, -0.0009374991, 0.01278747, 0.9961821, 0.004975557, 0.03343904, -0.06126827, 21.07059
12.69994, 0.001503907, 0.01865051, 1.000067, -0.08648777, -0.05802441, 0.09117073, 21.16471
12.71994, -0.003378905, 0.01499084, 1.003249, 0.03546345, 0.3688049, 0.06068292, 21.16471
12.73993, 3.906339e-05, 0.01619873, 1.00176, -0.1779512, 0.03343904, 0.1521463, 21.16471
12.75994, -0.006064452, 0.01450745, 1.005911, -0.08648777, -0.271439, -0.1222439, 21.16471
12.77993, -0.00142578, 0.01815796, 1.002035, -0.02551222, -0.05802441, 0.2436098, 21.16471
12.81422, 0.004189454, 0.02133118, 0.9956569, -0.05599999, 0.2773415, 0.1521463, 21.11765
12.82867, 0.002968751, 0.02571961, 1.000547, 0.06595123, 0.03343904, 0.1826341, 21.16471
12.84252, 3.906339e-05, 0.02694702, 1.010039, 0.03546345, 0.06392682, 0.1216585, 21.16471
12.85994, -0.001669921, 0.017677, 0.9998696, -0.02551222, 0.09441471, 0.1521463, 21.11765
12.87993, -0.0004492178, 0.02233398, 1.002287, -0.05599999, -0.02753651, 0.1216585, 21.02353
12.89993, -0.003378905, 0.01670227, 0.9951456, -0.02551222, 0.06392682, -0.0002926588, 21.11765
12.91993, -0.004843749, 0.0220636, 0.9995834, -0.08648777, 0.1553903, 0.09117073, 21.11765
12.93993, 0.005654298, 0.01743408, 0.9949537, 0.096439, 0.03343904, 0.03019512, 21.11765
12.95993, -0.002402343, 0.01914246, 0.9944348, 0.06595123, -0.08851218, 0.1521463, 21.16471
12.97994, -0.006552733, 0.01401794, 1.003727, -0.02551222, 0.1249025, -0.03078049, 21.07059
13.01442, -0.003623046, 0.01816894, 0.9988307, 0.004975557, -0.02753651, 0.1826341, 21.07059
13.02872, -0.002158202, 0.02134094, 0.9942455, -0.02551222, 0.1249025, 0.06068292, 21.07059
13.04255, 0.001748048, 0.02473572, 0.998125, -0.08648777, 0.1553903, 0.03019512, 21.11765
13.05994, 0.003945313, 0.02255493, 1.009102, -0.08648777, 0.09441471, -0.06126827, 21.07059
13.07993, 0.004921876, 0.02354126, 1.002504, 0.1879025, 0.09441471, -0.0002926588, 21.07059
13.09993, -0.004111327, 0.01499023, 1.004921, -0.02551222, -0.02753651, 0.09117073, 21.07059
13.11993, -0.0006933585, 0.01819153, 1.008098, 0.096439, -0.119, 0.1521463, 21.07059
13.13994, -0.002402343, 0.01377319, 0.9954152, 0.004975557, 0.06392682, -0.03078049, 21.07059
13.15994, 0.000283204, 0.01891052, 0.9942276, -0.1474634, 0.06392682, -0.06126827, 21.02353
13.17994, 0.001503907, 0.01719116, 0.9954076, -0.02551222, 0.06392682, 0.1216585, 21.02353
13.21462, -0.008261718, 0.01889709, 1.000032, -0.08648777, 0.09441471, -0.09175611, 21.02353
13.22902, -0.00118164, 0.01694458, 0.9946445, -0.208439, 0.06392682, 0.2740976, 21.07059
13.24286, 0.001259767, 0.02085144, 0.9949065, 0.06595123, -0.05802441, 0.1216585, 21.02353
13.25995, -0.003623046, 0.01670593, 1.006665, 0.1269268, 0.03343904, 0.06068292, 21.07059
13.27994, -0.002402343, 0.02036255, 1.002488, -0.02551222, 0.09441471, -0.0002926588, 21.07059
13.29994, 0.003457032, 0.0157312, 0.9991054, 0.1269268, 0.06392682, 0.2131219, 21.16471
13.31993, -0.0006933585, 0.01768799, 1.002252, 0.096439, 0.1249025, 0.2131219, 21.16471
13.33993, -0.00533203, 0.01524841, 1.004735, -0.08648777, 0.1553903, -0.09175611, 21.07059
13.35994, 0.003457032, 0.0240094, 1.001801, 0.1574147, -0.02753651, -0.03078049, 21.11765
13.37994, 0.0007714853, 0.02499756, 0.9985776, 0.1574147, 0.09441471, 0.2131219, 21.11765
13.41477, -0.002158202, 0.02597778, 0.9974092, 0.03546345, 0.06392682, 0.09117073, 21.11765
13.42908, -0.0002050772, 0.02452209, 0.9988562, 0.004975557, 0.2468537, 0.03019512, 21.16471
13.44293, -0.0006933585, 0.02109375, 0.9986158, 0.004975557, -0.05802441, -0.06126827, 21.07059
13.45994, 0.001015626, 0.02231262, 1.001525, 0.03546345, 0.1553903, 0.2131219, 20.97647
13.47993, -0.0004492178, 0.01866943, 0.9927437, 0.096439, 0.06392682, 0.06068292, 21.02353
13.49994, 0.005166017, 0.02230408, 0.999572, 0.1269268, 0.2468537, 0.06068292, 21.07059
13.51993, -0.004843749, 0.02134399, 0.9976469, 0.03546345, -0.05802441, 0.2436098, 21.07059
13.53994, 0.0007714853, 0.02352417, 1.011261, 0.1574147, 0.1553903, 0.06068292, 21.07059
13.55993, -0.00118164, 0.01621216, 1.001038, -0.08648777, 0.002951264, 0.09117073, 21.07059
13.57993, -0.001669921, 0.0152417, 1.001953, 0.004975557, 0.3383171, 0.06068292, 21.16471
13.61493, -0.001914062, 0.02231262, 0.997835, 0.004975557, 0.06392682, 0.09117073, 21.11765
13.62945, 0.001015626, 0.01937378, 0.9912266, -0.05599999, -0.05802441, 0.1521463, 21.07059
13.64327, 0.001748048, 0.02132385, 0.9966742, 0.004975557, 0.2163659, 0.1521463, 21.07059
13.65993, 0.001015626, 0.01938355, 1.002002, -0.05599999, -0.08851218, -0.1527317, 21.11765
13.67994, -0.001914062, 0.01742676, 1.000073, -0.05599999, -0.05802441, 0.03019512, 21.02353
13.69993, 0.001015626, 0.02036804, 1.006665, 0.03546345, -0.02753651, -0.0002926588, 21.11765
13.71993, -0.006552733, 0.02474243, 0.9964007, 0.1574147, 0.06392682, -0.06126827, 21.21176
13.73993, -0.002402343, 0.01768677, 0.9990735, 0.03546345, 0.2163659, 0.09117073, 21.11765
13.75994, 0.004433595, 0.02377991, 0.9991015, 0.096439, 0.06392682, 0.03019512, 21.16471
13.77993, -0.003378905, 0.0198761, 0.9964428, 0.1269268, 0.06392682, 0.2131219, 21.07059
13.81512, -0.001669921, 0.01936707, 1.003977, -0.08648777, 0.002951264, 0.06068292, 21.07059
13.82959, -0.00118164, 0.01912415, 1.000799, 0.004975557, 0.1553903, 0.2436098, 21.11765
13.84348, -0.001669921, 0.02035828, 1.001008, -0.05599999, 0.06392682, 0.1521463, 21.11765
13.85994, -0.007773437, 0.01303162, 0.996917, 0.06595123, -0.02753651, 0.2131219, 21.11765
13.87993, 0.003945313, 0.02230591, 1.005676, 0.004975557, 0.03343904, 0.1826341, 21.07059
13.89994, -0.0006933585, 0.01963074, 1.004225, 0.1879025, -0.05802441, -0.03078049, 21.11765
13.91993, -0.002402343, 0.01986938, 1.000724, -0.08648777, 0.002951264, 0.09117073, 21.07059
13.93994, 0.003701173, 0.01791321, 0.9973824, 0.06595123, -0.119, -0.2137073, 21.02353
13.95994, -0.001669921, 0.01816223, 0.9990875, -0.02551222, -0.05802441, 0.06068292, 21.21176
13.97993, -0.001669921, 0.0181604, 0.9978796, -0.05599999, -0.02753651, -0.06126827, 21.02353
14.01529, -0.0004492178, 0.02205139, 0.9920215, -0.05599999, 0.1249025, 0.09117073, 21.07059
14.02987, -0.002890624, 0.01572144, 1.002994, -0.1779512, -0.1799756, -0.1527317, 21.07059
14.04366, -0.00142578, 0.022807, 0.9937572, -0.2389269, -0.2104634, -0.0002926588, 21.16471
14.05994, -0.003867187, 0.01742676, 0.9964134, 0.096439, 0.2163659, -0.1222439, 21.07059
14.07994, -0.0009374991, 0.01914795, 1.002523, -0.02551222, 0.06392682, 0.1216585, 21.07059
14.09993, -0.0004492178, 0.02035095, 1.004955, -0.1169757, 0.06392682, -0.06126827, 21.16471
14.11993, -0.003134765, 0.02279175, 1.003467, 0.06595123, 0.09441471, 0.09117073, 21.07059
14.13994, 0.00272461, 0.01890075, 0.9927653, 0.03546345, 0.03343904, 0.09117073, 21.07059
14.15994, -0.0009374991, 0.02303833, 0.9963905, 0.004975557, 0.1249025, 0.06068292, 21.07059
14.17993, 0.003701173, 0.01866089, 0.9941945, 0.1574147, 0.2468537, 0.2131219, 21.02353
14.21549, -0.0002050772, 0.02108887, 0.995681, -0.05599999, -0.05802441, 0.1216585, 21.07059
14.22999, -0.001914062, 0.02060425, 1.005154, 0.06595123, 0.002951264, -0.09175611, 21.11765
14.24385, -0.003378905, 0.01914062, 1.005234, -0.08648777, 0.3383171, 0.03019512, 21.07059
14.25993, 0.00272461, 0.02181702, 1.003027, 0.03546345, 0.03343904, 0.09117073, 21.07059
14.27993, 0.001015626, 0.01767212, 1.005903, 0.2183902, -0.05802441, -0.1527317, 21.11765
14.29994, 0.001748048, 0.02573364, 1.002671, 0.096439, -0.02753651, 0.1521463, 21.02353
14.31993, -0.0004492178, 0.01621155, 1.0001, 0.1269268, -0.08851218, 0.03019512, 21.07059
14.33993, 0.001748048, 0.02938293, 1.003935, -0.02551222, 0.09441471, 0.1826341, 21.16471
14.35994, -0.0009374991, 0.01669617, 1.005459, 0.06595123, 0.06392682, 0.09117073, 21.07059
14.37993, 0.001503907, 0.02084106, 1.011747, 0.03546345, 0.06392682, 0.3045854, 20.97647
14.4156, -0.008017577, 0.01914246, 0.9961286, 0.2183902, -0.119, -0.09175611, 21.07059
14.43004, -0.01021484, 0.0184137, 1.000316, -0.02551222, -0.05802441, -0.09175611, 21.02353
14.44386, 0.001259767, 0.0191333, 0.9969259, 0.1269268, -0.05802441, 0.1826341, 21.07059
14.45994, -0.003867187, 0.01645386, 1.003956, -0.05599999, 0.1858781, 0.1216585, 21.21176
14.47993, -0.00142578, 0.01375977, 0.9976494, -0.1169757, 0.1553903, 0.1521463, 21.02353
14.49994, 0.0007714853, 0.01963867, 0.9956798, -0.1474634, 0.03343904, 0.09117073, 21.02353
14.51993, -0.006552733, 0.02327942, 1.001529, -0.05599999, 0.002951264, 0.03019512, 21.11765
14.53994, -0.002646483, 0.0235376, 0.9952183, 0.004975557, -0.05802441, -0.03078049, 21.07059
14.55993, -0.002890624, 0.02036377, 1.001762, -0.1169757, -0.1494877, 0.03019512, 21.11765
14.57993, -0.004355468, 0.01425903, 0.9983742, 0.004975557, -0.02753651, 0.09117073, 21.07059
14.61578, 0.0005273447, 0.02084534, 0.9988447, -0.05599999, 0.06392682, 0.1521463, 21.21176
14.63023, 0.002236329, 0.01890014, 1.002708, 0.004975557, 0.2468537, 0.1521463, 21.16471
14.64408, -0.001669921, 0.01427124, 0.9967124, -0.2694147, 0.1553903, -0.0002926588, 21.07059
14.65994, -0.002158202, 0.01134033, 0.9954483, -0.02551222, -0.02753651, 0.06068292, 21.11765
14.67994, -0.001669921, 0.01620239, 0.9924869, -0.02551222, -0.08851218, 0.03019512, 21.07059
14.69994, 0.000283204, 0.02352234, 0.9968699, -0.1474634, 0.09441471, 0.06068292, 21.11765
14.71994, 0.001748048, 0.02134216, 0.9976138, -0.2389269, -0.02753651, -0.0002926588, 21.11765
14.73994, -0.0004492178, 0.01840515, 1.007348, 0.03546345, 0.2163659, -0.0002926588, 21.11765
14.75994, 3.906339e-05, 0.02157715, 1.003238, 0.004975557, -0.02753651, -0.0002926588, 21.11765
14.77994, -0.004111327, 0.01547302, 1.005664, -0.1169757, 0.002951264, -0.0002926588, 21.11765
14.81592, 0.0007714853, 0.01718445, 0.9969297, -0.08648777, 0.09441471, 0.03019512, 21.07059
14.83038, -0.0002050772, 0.01402527, 0.9964249, -0.1474634, 0.03343904, 0.06068292, 21.11765
14.84434, -0.007041015, 0.01523743, 0.9930146, 0.2183902, 0.2163659, -0.03078049, 21.21176
14.85993, -0.003623046, 0.01816345, 0.9961617, 0.03546345, 0.06392682, -0.1222439, 21.07059
14.87993, 0.001015626, 0.01743591, 1.004949, -0.05599999, 0.09441471, 0.2131219, 21.07059
14.89993, -0.0002050772, 0.02401184, 1.000568, 0.03546345, -0.119, 0.2131219, 21.16471
14.91993, 0.002968751, 0.02207153, 1.001474, 0.03546345, 0.09441471, 0.06068292, 21.07059
14.93994, -0.001669921, 0.01718201, 0.9990645, 0.004975557, -0.05802441, -0.0002926588, 21.16471
14.95994, 0.003701173, 0.02061584, 0.998575, 0.1269268, 0.09441471, -0.06126827, 21.11765
14.97994, 0.00272461, 0.01401978, 0.9939619, 0.06595123, 0.09441471, 0.2740976, 21.11765
15.01622, 0.002236329, 0.02402405, 1.006871, 0.096439, 0.1553903, 0.09117073, 21.16471
