time,acc_x,acc_y,acc_z,gyro_x,gyro_y,gyro_z,temp
0.0, -0.006796874, 0.01497559, 1.003247, -0.1474634, 0.3992927, 1.920439, 21.21176
0.019944, 0.01322266, 0.03423523, 1.003216, 0.7061951, 2.167585, 3.444829, 21.30588
0.039933, 0.0225, 0.03447144, 0.9997957, 0.9500976, 3.966366, 2.072878, 21.30588
0.059933, 0.001992188, 0.04424438, 0.9986082, 0.4013171, 2.838317, -1.829561, 21.16471
0.079931, 0.0005273447, 0.04348572, 1.003984, 0.3098537, 1.618805, -2.408829, 21.25882
0.099935, -0.006796874, 0.03691467, 0.9966742, -0.6657561, 0.03343904, -1.219805, 21.30588
0.119932, -0.01070312, 0.02571106, 0.9996204, -0.2389269, -0.7897317, 0.4570244, 21.25882
0.139938, 0.01517578, 0.02864624, 1.002756, 0.03546345, 0.9175854, 2.164341, 21.25882
0.159933, 0.01322266, 0.04156067, 1.003233, 2.139122, 1.527341, 0.7314147, 21.25882
0.179936, 0.01517578, 0.04446228, 1.008325, 1.163512, 0.6736829, -0.7015122, 21.21176
0.200151, -0.005576171, 0.05275879, 0.9864075, 0.3403414, 0.1858781, -0.1527317, 21.21176
0.219947, -0.01192383, 0.04300659, 0.9849936, -0.4523415, 0.03343904, 0.4265366, 21.21176
0.239933, -0.01631836, 0.0349707, 1.003958, -1.336488, -1.064122, 1.981415, 21.30588
0.259932, -0.0006933585, 0.02643372, 1.002259, 0.8586341, 0.1249025, 2.438732, 21.21176
0.279929, 0.0212793, 0.0471637, 1.013206, 1.498878, 2.502951, -0.3356586, 21.30588
0.299935, 3.906339e-05, 0.05273743, 0.9959749, 1.803756, 1.009049, -3.811268, 21.21176
0.31993, -0.008505858, 0.06346375, 0.9905528, -0.8791706, 0.06392682, -2.042975, 21.16471
0.339935, -0.01119141, 0.04740173, 0.9866835, -2.860878, 0.3383171, 2.347268, 21.21176
0.35993, -0.004111327, 0.02912048, 1.005188, -2.068195, -0.05802441, 3.597269, 21.25882
0.37993, 0.004677735, 0.04082642, 0.9969247, -0.08648777, 0.826122, 1.524098, 21.25882
0.399967, 0.0159082, 0.04446045, 1.004203, 1.590341, 0.6127074, -2.744195, 21.21176
0.419947, -0.003134765, 0.04350403, 0.9939734, -0.208439, -1.308024, -3.719805, 21.25882
0.439938, -0.004111327, 0.04326416, 1.001037, -1.397464, -0.05802441, -0.09175611, 21.25882
0.459935, -0.008749999, 0.03449157, 0.995231, -1.336488, 0.3078293, 2.652146, 21.16471
0.479929, -0.0009374991, 0.01987854, 1.002954, 0.7671707, 0.4297805, 2.225317, 21.21176
0.499931, 0.007851563, 0.02497559, 1.005173, 1.864732, 0.002951264, -0.4576097, 21.25882
0.519931, 0.01566406, 0.04080505, 1.011075, 0.7061951, 0.6431952, -1.372244, 21.21176
0.539937, 0.01493164, 0.0464093, 0.9956569, -0.6047806, 2.076122, -0.5490732, 21.30588
0.559933, -0.01680664, 0.02496643, 0.9991526, -2.037707, 1.100512, 0.09117073, 21.25882
0.579933, -0.008017577, 0.02401123, 1.001489, -0.1779512, 1.039537, 0.6399512, 21.30588
0.599974, -0.002646483, 0.0244989, 0.9974002, 1.864732, -0.2409512, -0.732, 21.30588
0.61995, -0.01021484, 0.04178162, 0.9908224, 2.413512, -0.1799756, -0.06126827, 21.25882
0.639937, 0.00638672, 0.05176514, 0.9961528, -0.4218536, 0.2163659, 1.676537, 21.16471
0.659936, 0.007363282, 0.04325684, 1.007813, -1.03161, 1.009049, 3.231415, 21.25882
0.679935, 0.009072267, 0.03618286, 1.009083, -0.4523415, 1.771244, 1.859464, 21.16471
0.699932, 3.906339e-05, 0.03375366, 1.010977, 1.590341, 0.03343904, -2.317366, 21.30588
0.719932, 3.906339e-05, 0.0415564, 0.9971128, 3.084244, -1.064122, -3.78078, 21.21176
0.739931, -0.004355468, 0.05981201, 0.9815987, 1.407415, -0.3019269, -1.341756, 21.21176
0.759938, 0.000283204, 0.05810608, 0.9969093, -2.190146, 1.40539, 2.316781, 21.21176
0.779936, -0.00508789, 0.03935303, 0.9978452, -2.83039, 3.173683, 2.804585, 21.30588
0.800034, -0.01241211, 0.03301941, 0.9881445, -0.3303902, 1.557829, 0.03019512, 21.21176
0.819943, -0.00508789, 0.03279175, 0.9949435, 1.590341, 0.1553903, -1.128341, 21.16471
0.839939, -0.007773437, 0.03788635, 1.011515, 1.956195, -1.09461, -0.884439, 21.25882
0.859938, 0.005410157, 0.04568359, 1.006386, -0.1169757, -1.003146, 0.4570244, 21.16471
0.879934, -0.003134765, 0.04886108, 1.001546, -1.001122, -0.6068048, 1.036293, 21.35294
0.899931, 0.005166017, 0.04374268, 1.00199, -0.4523415, 0.7346586, 0.1216585, 21.16471
0.919933, 0.01493164, 0.04666931, 1.006147, 0.6452195, 2.10661, -0.4880976, 21.16471
0.939936, 0.004189454, 0.03837585, 1.002208, -0.4523415, 1.039537, -1.189317, 21.21176
0.959931, 0.004921876, 0.04008789, 0.9974142, -0.6962439, 1.252951, -0.274683, 21.16471
0.979932, -0.006796874, 0.03471802, 1.006634, -0.7267318, 0.4602683, -0.274683, 21.16471
1.000108, -0.01265625, 0.03325134, 0.9873892, 0.03546345, 0.978561, -0.1832195, 21.21176
1.019954, -0.01509766, 0.0386084, 0.9906038, 0.2183902, 0.826122, -0.1222439, 21.11765
1.039932, -0.01631836, 0.05007751, 0.9830239, -0.8486829, -0.05802441, 0.2131219, 21.11765
1.059935, -0.01119141, 0.04473206, 0.9932039, -1.488927, -0.1799756, 0.9448293, 21.21176
1.079933, 0.003701173, 0.03351806, 1.001058, -0.2389269, 0.002951264, 1.402146, 21.16471
1.099929, 0.0007714853, 0.03400574, 1.011993, 1.590341, 0.5822196, 1.249707, 21.21176
1.119934, 0.001992188, 0.03838134, 0.9981085, 2.261073, 0.09441471, -0.2441951, 21.21176
1.139933, 0.004189454, 0.04982361, 0.993499, 0.3403414, -0.3324146, -1.00639, 21.25882
1.159929, -0.004843749, 0.05518677, 0.9956874, -2.00722, -1.125098, -0.9454146, 21.25882
1.179931, -0.01973633, 0.04470886, 0.9842626, -0.7877073, 0.2773415, 0.7009268, 21.16471
1.204132, -0.007529296, 0.0361908, 1.000046, 0.7671707, 1.131, 2.377756, 21.21176
1.219946, 0.0005273447, 0.03228455, 1.005157, 1.529366, 0.9175854, 1.188732, 21.16471
1.239936, 0.001015626, 0.04398926, 1.002423, 0.4013171, -0.8507072, -2.042975, 21.16471
1.259931, -0.001669921, 0.04910339, 0.9964352, -0.3608781, -1.09461, -2.347854, 21.21176
1.279933, -0.006552733, 0.04813232, 1.001561, -1.245024, 0.1553903, 0.2131219, 21.25882
1.299934, -0.004355468, 0.03666687, 1.001778, -1.153561, 1.649293, 2.347268, 21.21176
1.319929, -0.00118164, 0.03839722, 1.004884, 0.1269268, 1.466366, 0.2436098, 21.21176
1.339931, -0.01021484, 0.03448181, 0.9898254, 1.376927, 0.09441471, -1.70761, 21.21176
1.359932, -0.01094726, 0.04517578, 0.9906076, 1.529366, 0.1858781, -1.158829, 21.21176
1.379933, -0.01436523, 0.04422974, 0.9912979, -0.9706343, -0.5763171, 1.097268, 21.25882
1.404313, -0.004843749, 0.03789185, 1.001543, -2.037707, -0.2104634, 2.682634, 21.25882
1.41995, -0.006552733, 0.02715088, 1.010282, -2.068195, -0.3933902, 1.737512, 21.25882
1.439935, 0.006142579, 0.04253906, 1.003233, 1.011073, 2.289536, 0.09117073, 21.25882
1.459933, -0.004843749, 0.0320282, 0.9898254, 2.230585, -0.3324146, -1.555171, 21.25882
1.479935, -0.00923828, 0.0425238, 1.000279, 1.712293, -1.247049, -0.3051707, 21.16471
1.499929, 0.004433595, 0.04617493, 0.9983603, 0.5842439, -0.271439, 1.981415, 21.25882
1.519935, 0.005654298, 0.04957092, 0.9944756, 0.5232683, 1.191976, 1.707024, 21.16471
1.53993, 0.005898438, 0.05053833, 0.9944769, 0.004975557, 0.2468537, -1.00639, 21.16471
1.559935, -0.003378905, 0.04420959, 0.9934799, 0.1879025, 0.7956342, -0.6405365, 21.30588
1.579932, -0.007773437, 0.03814881, 1.003912, -0.8791706, 0.7651464, 1.097268, 21.21176
1.604484, 0.005410157, 0.04691467, 0.9991028, 1.254976, 1.222463, 0.7923903, 21.21176
1.619953, 0.0134668, 0.05077637, 1.002053, 0.8586341, 1.131, -1.036878, 21.16471
1.639937, -0.008505858, 0.04714966, 0.9937292, 0.4622927, 0.3992927, -2.439317, 21.25882
1.659936, -0.01314453, 0.05030701, 0.9844404, -0.02551222, 0.7651464, -0.3661463, 21.25882
1.679934, 0.00638672, 0.04470459, 1.002008, -2.647464, 3.021244, 3.780195, 21.21176
1.699929, -0.01021484, 0.01863098, 1.005939, -0.7877073, 1.466366, 1.219219, 21.16471
1.719937, -0.00508789, 0.03082092, 1.005167, -0.2694147, 1.496854, -1.43322, 21.16471
1.739936, -0.005576171, 0.04397827, 1.002767, 0.6452195, 0.3688049, -3.201512, 21.25882
1.759929, -0.02364258, 0.04056885, 0.9884002, 0.7366829, 0.521244, -1.768585, 21.21176
1.779935, -0.02754883, 0.0396167, 1.000615, -0.7572196, 0.9480732, 1.798488, 21.21176
1.80465, -0.02291016, 0.03107544, 0.9995656, -0.02551222, 1.618805, 3.627756, 21.07059
1.819943, -0.01290039, 0.0393689, 0.9934774, 0.1269268, 0.8870975, 1.585073, 21.30588
1.839937, -0.007285155, 0.04301697, 1.004685, 0.7061951, -0.5153414, -1.372244, 21.21176
1.859935, 0.000283204, 0.04640747, 1.008343, 0.6452195, -0.8811951, -2.347854, 21.21176
1.879936, -0.01363281, 0.04714294, 0.9905566, 0.6757073, 0.3688049, -0.579561, 21.30588
1.899928, -0.01680664, 0.04885864, 0.9874121, 0.4318049, 0.978561, 0.7314147, 21.25882
1.919937, -0.02242188, 0.04058594, 0.9932588, -0.5742927, -0.8202195, 0.3960488, 21.21176
1.939941, -0.01973633, 0.0378833, 1.002512, -1.062098, 0.5517318, 0.9753171, 21.35294
1.959926, -0.01607422, 0.01671326, 1.017034, -0.2999024, 0.06392682, -1.128341, 21.25882
1.97994, -0.0165625, 0.02498413, 0.9985942, 1.74278, -0.5153414, -1.860049, 21.35294
2.004833, -0.02364258, 0.03959411, 0.9867256, 3.267171, -0.1799756, -1.219805, 21.21176
2.019944, -0.01827148, 0.0588446, 0.9903507, 1.834244, -0.05802441, 0.670439, 21.25882
2.039933, -0.01167969, 0.04763184, 1.003474, -1.549902, 0.09441471, 2.74361, 21.21176
2.059929, -0.003867187, 0.02693359, 1.002953, -2.251122, 0.521244, 2.347268, 21.4
2.079933, -0.01387695, 0.02790649, 1.005175, 0.6147317, -1.09461, -0.1832195, 21.30588
2.099936, -0.01192383, 0.04299561, 1.006889, 3.663512, -1.064122, -1.280781, 21.21176
2.119941, -0.002890624, 0.05785828, 0.9929968, 3.907415, -0.8202195, -0.03078049, 21.30588
2.139933, 0.007363282, 0.07393799, 1.004943, 0.5232683, 1.374902, 3.048488, 21.21176
2.159929, 0.01078125, 0.07175598, 0.9991615, -2.190146, 3.448073, 1.646049, 21.25882
2.179931, 0.006875001, 0.06079834, 1.004923, -2.921854, 2.289536, -2.622244, 21.21176
2.204928, -0.02095703, 0.05299561, 0.9988816, -0.05599999, 0.7651464, -3.963707, 21.21176
2.219946, -0.02486328, 0.04373718, 0.9900734, 1.89522, -0.1799756, -2.774683, 21.25882
2.239938, -0.0165625, 0.05347046, 0.9947108, 0.3098537, 0.1249025, 1.798488, 21.16471
2.259938, 0.003701173, 0.06858704, 1.002438, -1.214537, 2.716366, 3.627756, 21.25882
2.279935, 0.006875001, 0.06103088, 1.001566, -2.28161, 2.960268, -0.2137073, 21.30588
2.299935, -0.005820312, 0.0469043, 0.9918003, -1.336488, 1.862707, -3.750293, 21.21176
2.319935, -0.0153418, 0.04688293, 0.989107, -2.220634, 0.5822196, -3.475903, 21.30588
2.339938, -0.01094726, 0.03399048, 1.003956, -4.476732, 1.557829, -0.3356586, 21.21176
2.359931, -0.01485351, 0.01914856, 1.017337, -5.787707, 1.527341, 1.49361, 21.21176
2.379933, -0.01973633, 0.008188476, 0.9959379, -1.336488, 1.618805, 1.859464, 21.21176
2.405117, 0.01395508, 0.02327575, 1.004896, 2.687902, 3.783439, 0.3045854, 21.25882
2.419951, 0.007119142, 0.03227783, 1.001964, 2.413512, 3.661488, -2.622244, 21.25882
2.439939, -0.002402343, 0.05054382, 1.001843, -2.00722, 2.960268, -3.78078, 21.16471
2.459936, -0.0231543, 0.04764648, 1.009809, -5.269415, 2.137098, -1.890537, 21.25882
2.47993, -0.03951172, 0.01475769, 1.011509, -4.751122, 0.8566098, 1.371659, 21.25882
2.499935, -0.04219727, -0.003513185, 1.010538, 0.248878, -1.033634, 1.463122, 21.25882
2.519935, -0.03926758, 0.01718201, 0.9891262, 4.364732, -2.253146, 1.066781, 21.25882
2.53993, -0.02510742, 0.04689575, 0.98766, 3.937902, -2.131195, 1.066781, 21.16471
2.559934, -0.02217773, 0.0617395, 0.9782062, 0.2793658, -0.5458293, 0.09117073, 21.16471
2.579931, -0.02535156, 0.06299316, 0.9830099, -3.897464, -0.3629024, -1.890537, 21.25882
2.605348, -0.04244141, 0.03375427, 1.002466, -4.324293, -0.271439, -1.219805, 21.25882
2.619948, -0.03975586, 0.008181762, 1.009298, -1.001122, -0.6068048, -0.03078049, 21.25882
2.639938, -0.03096679, 0.01474792, 1.015611, 3.572049, -1.003146, 2.46922, 21.21176
2.659936, -0.002646483, 0.03860413, 1.000827, 4.639122, -1.856805, 2.347268, 21.30588
2.679931, 0.01249024, 0.06053589, 0.9930834, 1.102537, -2.862902, -0.9149269, 21.21176
2.699926, 0.01102539, 0.06395569, 0.9884027, -3.53161, -1.277537, -3.110049, 21.16471
2.719933, -0.0009374991, 0.04374512, 1.013895, -6.458439, 0.7956342, -2.652732, 21.25882
2.73993, -0.008505858, -0.004002076, 1.014079, -4.446244, 2.899293, -1.738098, 21.16471
2.759931, -0.02413086, -0.02226501, 1.024636, 1.072049, 1.710268, -0.7015122, 21.25882
2.779929, -0.02901367, 0.001134643, 1.000072, 4.700098, 0.4907561, 0.09117073, 21.16471
2.805528, -0.02828125, 0.03082886, 0.9774686, 4.822049, -1.247049, -0.6100488, 21.25882
2.819946, -0.01949219, 0.0519873, 0.9845003, 2.748878, -0.6677805, -0.579561, 21.21176
2.839932, -0.02291016, 0.06589233, 0.9811002, -0.208439, -0.2409512, -0.4880976, 21.21176
2.859934, -0.0153418, 0.06540284, 0.9915205, -2.342585, 0.4297805, 0.518, 21.30588
2.879938, -0.01607422, 0.03814209, 1.006316, -2.525512, 0.5822196, 1.615561, 21.21176
2.89993, -0.01607422, 0.01986938, 1.013658, 0.5842439, 0.3383171, 0.8838537, 21.30588
2.919932, -0.00508789, 0.02181946, 1.003477, 2.687902, -0.8811951, -0.2441951, 21.21176
2.939937, 0.001992188, 0.0410553, 0.9912712, 2.596439, -0.02753651, -1.738098, 21.11765
2.959934, -0.002890624, 0.04615173, 0.9873764, 1.163512, -0.4543658, -2.805171, 21.25882
2.979936, -0.03121094, 0.04835083, 0.9782062, 0.1574147, -0.9726586, -1.463707, 21.16471
3.0057, -0.007529296, 0.04885803, 1.000545, -1.519415, 1.984659, 3.078976, 21.25882
3.019948, -0.00899414, 0.03180847, 0.99857, -0.8181952, 2.441976, 2.560683, 21.25882
3.039933, -0.0009374991, 0.04399353, 1.00612, -0.9706343, 1.009049, 0.3350732, 21.25882
3.059932, 0.006875001, 0.03277038, 1.009996, -0.2999024, 0.9480732, -1.280781, 21.25882
3.079937, -0.006552733, 0.028172, 1.007597, -0.1474634, 0.6431952, -2.134439, 21.30588
3.099928, -0.02291016, 0.03326782, 0.9893397, 0.5232683, 1.070024, -0.5490732, 21.21176
3.119932, -0.03267578, 0.03617249, 0.9815196, -0.5438049, 1.161488, 2.04239, 21.25882
3.139939, -0.04195313, 0.03302429, 0.9813443, -0.2694147, 1.131, 2.347268, 21.30588
3.159935, -0.03487304, 0.04130371, 1.007608, -1.123073, -0.4238781, 0.03019512, 21.30588
3.179931, -0.03072265, 0.0522467, 0.9794065, 0.4013171, -0.6372926, -0.6710244, 21.25882
3.205939, -0.01900391, 0.04959106, 0.9959023, -1.245024, -0.6068048, 1.249707, 21.21176
3.219943, -0.02413086, 0.04765381, 0.9946637, -1.610878, -0.5458293, 2.804585, 21.35294
3.239933, -0.01485351, 0.03693176, 1.01534, -0.5133171, -0.9421706, 1.585073, 21.25882
3.25993, -0.003378905, 0.03594971, 1.019552, 0.9500976, -1.490951, -1.951512, 21.16471
3.279936, -0.009482421, 0.05005615, 0.9998289, 2.230585, 0.9175854, -2.835659, 21.25882
3.299931, -0.01143555, 0.06176697, 0.99127, -1.123073, 1.131, -2.591756, 21.25882
3.319935, -0.03096679, 0.0529834, 0.9844684, -2.616976, 0.03343904, -1.829561, 21.16471
3.339938, -0.02925781, 0.03130615, 0.9896235, -3.836488, -0.8507072, 0.1521463, 21.35294
3.359932, -0.01753906, 0.01842163, 1.011706, -2.708439, 0.3688049, 1.707024, 21.25882
3.379929, -0.00533203, 0.007957153, 1.017075, -0.1169757, 1.466366, 0.4875122, 21.30588
3.406077, -0.008261718, 0.02278076, 0.9949269, 0.9805853, 0.7651464, -2.378342, 21.21176
3.419963, -0.01509766, 0.03913025, 0.9893933, 0.8891219, 0.978561, -2.805171, 21.25882
3.439935, -0.01973633, 0.03009827, 0.9978949, -0.8181952, 0.7651464, -1.158829, 21.35294
3.459934, -0.03560547, 0.02670471, 1.006655, -1.488927, 0.5822196, 1.707024, 21.25882
3.479936, -0.02535156, 0.02232544, 1.008047, -1.001122, 0.7346586, 2.74361, 21.25882
3.49993, -0.02730469, -0.005458984, 0.9927705, 1.956195, -0.271439, -0.579561, 21.25882
3.519933, -0.02168945, 0.03422668, 0.9938312, 1.773268, -0.2409512, -0.4271219, 21.16471
3.539929, -0.02779297, 0.03104492, 1.001505, 0.7976585, 0.06392682, 1.097268, 21.16471
3.559933, -0.02291016, 0.03985779, 0.9917493, -1.062098, -0.4848536, 2.530195, 21.25882
3.579935, -0.01290039, 0.03253845, 1.002725, -0.7572196, -0.2104634, 2.377756, 21.16471
3.606189, -0.00899414, 0.03326538, 1.000041, 1.376927, -0.4238781, 0.09117073, 21.25882
3.620134, -0.01045898, 0.03692993, 1.003724, 1.620829, -0.2104634, -0.5490732, 21.25882
3.639933, -0.01021484, 0.04422913, 0.9963714, 0.1269268, 0.3688049, 0.1521463, 21.35294
3.659932, -0.01192383, 0.04933289, 0.9993609, -0.9096586, 1.801732, 0.3350732, 21.30588
3.679931, -0.02144531, 0.04764771, 0.992511, -0.1474634, -0.08851218, -1.128341, 21.21176
3.699933, -0.02144531, 0.02375732, 1.002987, -0.6962439, -0.271439, -1.158829, 21.21176
3.71993, -0.02413086, 0.01768371, 0.9998073, 0.3708293, -0.6068048, -0.9149269, 21.21176
3.739933, -0.02168945, 0.02914185, 1.003745, 1.011073, -0.4543658, -0.03078049, 21.21176
3.759933, -0.02632812, 0.03132263, 0.994482, 0.8891219, 0.7346586, 0.9753171, 21.25882
3.779936, -0.03096679, 0.03471252, 0.9883874, 1.89522, 0.09441471, 0.8838537, 21.30588
3.806291, -0.01924805, 0.03764648, 0.9968596, -1.366976, -0.02753651, 1.005805, 21.25882
3.820178, -0.01412109, 0.03302551, 1.00543, -1.336488, -0.8202195, 0.3045854, 21.25882
3.839938, -0.02632812, 0.02376221, 0.9990607, 0.096439, -1.704366, 0.5789756, 21.25882
3.859931, -0.005576171, 0.03424805, 0.9968368, 1.224488, 0.2773415, 1.524098, 21.35294
3.879935, -0.01045898, 0.03008057, 1.001299, 2.779366, 0.5517318, 0.365561, 21.25882
3.899933, -0.00118164, 0.048125, 0.9924932, 0.8586341, 0.1858781, -0.6405365, 21.35294
3.919937, -0.009482421, 0.04347473, 0.9900479, -1.03161, 0.09441471, -0.6100488, 21.30588
3.939932, -0.01607422, 0.04422729, 0.987866, -1.641366, 0.4907561, 0.9448293, 21.25882
3.959933, -0.02193359, 0.03131592, 0.9960941, -1.275512, 0.1553903, 1.341171, 21.30588
3.979934, -0.0153418, 0.03497253, 1.008618, 1.376927, 1.40539, 1.554585, 21.11765
4.006479, -0.02510742, 0.03594787, 0.9988409, 1.74278, 0.4297805, -1.890537, 21.25882
4.020441, -0.01607422, 0.04398193, 1.004431, 0.6147317, 0.03343904, -1.372244, 21.16471
4.039938, -0.02168945, 0.0347229, 1.00323, -1.03161, -0.1799756, -0.3356586, 21.16471
4.059933, -0.0346289, 0.03521667, 0.9981186, -0.6352683, -1.460464, -0.4576097, 21.25882
4.079933, -0.02876953, 0.04253173, 0.9915217, -0.6352683, -1.460464, 0.1521463, 21.16471
4.099935, -0.02876953, 0.03350037, 0.9903597, 1.590341, 0.002951264, -0.8234634, 21.25882
4.119935, -0.008505858, 0.05470764, 0.9966334, -0.6047806, 0.9175854, 0.4875122, 21.16471
4.139933, -0.02339844, 0.04008484, 0.9934634, -1.458439, 0.2773415, 0.8228781, 21.25882
4.159936, -0.01338867, 0.03181824, 1.006859, -1.427951, -0.3324146, 0.7923903, 21.21176
4.179934, -0.01900391, 0.02717712, 1.001737, -0.02551222, -0.1494877, -0.8234634, 21.30588
4.206693, -0.02120117, 0.03448242, 0.9912929, 1.224488, -1.125098, -2.25639, 21.21176
4.220665, -0.01290039, 0.05274719, 0.9973989, 0.3708293, 0.06392682, -0.9759025, 21.30588
4.239935, -0.003378905, 0.05274414, 0.9957078, -1.763317, 1.67978, -0.1527317, 21.35294
4.259931, -0.0321875, 0.03618896, 0.9966449, -1.702342, 0.03343904, -1.646634, 21.21176
4.279933, -0.03047851, 0.03911255, 0.9971458, -1.153561, -0.271439, -0.6710244, 21.16471
4.29993, -0.03096679, 0.02645019, 1.000807, -0.5438049, -1.09461, -0.0002926588, 21.25882
4.319934, -0.008749999, 0.0162146, 1.013469, -1.123073, -1.704366, 0.1216585, 21.35294
4.339933, -0.00118164, 0.02596863, 1.010061, -1.062098, 0.5822196, -0.3966341, 21.25882
4.359936, -0.007041015, 0.02645324, 0.9983564, -0.3608781, 0.978561, -2.042975, 21.30588
4.379929, -0.02803711, 0.03376892, 0.9881318, 0.8586341, 0.3688049, -1.646634, 21.25882
4.406903, -0.0231543, 0.03326965, 1.001058, -1.519415, -0.728756, 1.249707, 21.25882
4.420782, -0.02364258, 0.02546142, 0.9934583, -1.824293, 0.002951264, 2.621659, 21.25882
4.439941, -0.024375, 0.01377869, 0.9949283, -0.4523415, -0.8811951, 1.49361, 21.30588
4.459935, -0.01094726, 0.02157593, 1.002274, 0.3708293, -0.9116829, 0.1216585, 21.30588
4.479931, -0.01021484, 0.03351685, 1.003232, 1.346439, 0.4297805, 0.4265366, 21.30588
4.499934, -0.004111327, 0.03275573, 1.005406, -1.885268, 0.6431952, 0.03019512, 21.30588
4.519933, -0.01338867, 0.03059326, 1.002718, -0.9096586, 0.6431952, -0.8539513, 21.30588
4.539933, -0.02217773, 0.02254333, 1.000068, -0.4523415, -0.5458293, -1.128341, 21.30588
4.559931, -0.03194336, 0.03156555, 0.9937547, 1.072049, -0.5763171, 0.1216585, 21.25882
4.579933, -0.01900391, 0.04032654, 0.9925289, 1.89522, 0.5517318, 2.255805, 21.16471
4.607014, -0.00923828, 0.04960693, 0.9971535, -3.287708, -0.3019269, 1.828976, 21.21176
4.620961, -0.004355468, 0.0364502, 1.007337, -4.507219, -0.5458293, 1.005805, 21.25882
4.639943, -0.0165625, 0.01645142, 1.012694, -3.470634, -0.3629024, -0.7929757, 21.25882
4.659935, -0.01436523, 0.01014221, 1.015875, 0.004975557, 0.3383171, -0.4271219, 21.25882
4.679937, -0.0255957, 0.02473694, 0.9881394, 4.456195, 1.67978, 0.3960488, 21.16471
4.699932, -0.01900391, 0.04982666, 0.9959328, 3.236683, 1.100512, 0.06068292, 21.25882
4.719933, -0.01875976, 0.05251831, 0.9810913, -1.214537, 0.002951264, 0.1216585, 21.25882
4.739939, -0.01949219, 0.03911316, 1.002077, -3.684049, -0.3629024, 0.9448293, 21.16471
4.759932, -0.02144531, 0.02401794, 1.002223, -1.488927, 2.045634, 2.164341, 21.25882
4.779932, -0.03536133, 0.01937744, 1.009044, 1.163512, 1.191976, 1.066781, 21.30588
4.807163, -0.02168945, 0.03009338, 1.001996, 1.559854, -0.1799756, -0.9454146, 21.25882
4.821124, -0.01314453, 0.03644714, 0.9927641, 0.7061951, -0.7592439, -0.9759025, 21.30588
4.839941, -0.02925781, 0.03057312, 0.9818581, -0.208439, -0.9116829, -1.341756, 21.16471
4.859934, -0.03414062, 0.03594666, 0.9896439, -0.8181952, -0.728756, 0.3045854, 21.25882
4.879939, -0.02486328, 0.02986084, 1.004461, -0.8791706, -0.08851218, 2.194829, 21.25882
4.899932, -0.01436523, 0.02547302, 1.01491, -1.092585, 0.06392682, 1.920439, 21.25882
4.919937, -0.008017577, 0.0259491, 1.004166, -0.7572196, 0.7346586, 1.066781, 21.25882
4.939933, -0.001669921, 0.01961365, 1.002455, -1.458439, 1.100512, 0.2436098, 21.35294
4.959934, -0.004111327, 0.02036499, 1.003963, -0.6657561, 1.893195, 0.8533659, 21.16471
4.979929, -0.01338867, 0.01132263, 1.005401, 0.03546345, 0.6127074, 0.7314147, 21.30588
5.007383, -0.02168945, 0.02496887, 1.001757, 2.626927, 0.8870975, -0.579561, 21.16471
5.021321, -0.0321875, 0.05664063, 0.995695, 3.084244, 1.313927, -1.677122, 21.21176
5.039939, -0.03853515, 0.09413147, 0.9539832, 4.944, 7.167585, -0.5185853, 21.21176
5.059937, -0.0268164, 0.1521478, 0.8216844, 9.761074, 23.60051, 4.572878, 21.30588
5.079929, -0.01705078, 0.1474896, 0.9824299, -0.4523415, 20.46027, 4.237512, 21.25882
5.09993, -0.1369238, 0.1080298, 0.9708947, -4.842586, 16.28344, -0.1222439, 21.25882
5.119932, -0.1278906, 0.09707764, 0.9879259, 5.584244, 8.509048, -2.317366, 21.35294
5.139936, -0.1701269, 0.1255621, 0.9638706, 20.03546, 0.1858781, -10.76249, 21.35294
5.159932, -0.1625586, 0.1669623, 0.9429854, 30.46229, -3.228756, -11.58566, 21.25882
5.179931, -0.1740332, 0.1920428, 0.9042869, 44.79156, -1.704366, -3.50639, 21.25882
5.207665, -0.1208105, 0.2341907, 0.9087591, 38.05376, 0.2773415, 9.847268, 21.25882
5.221582, -0.0880957, 0.2709058, 0.8966572, 38.63303, 4.941976, 24.81678, 21.25882
5.239937, -0.1217871, 0.1718628, 0.9296215, 35.34034, 9.362707, 30.48751, 21.30588
5.259933, -0.04683594, 0.1457544, 0.9984973, 40.58424, 16.92368, 34.99971, 21.30588
5.279935, -0.01167969, 0.1674628, 0.9862436, 54.05986, 33.23466, 35.18264, 21.30588
5.29993, -0.04463867, 0.2476166, 0.9457062, 80.43181, 38.69198, 31.09727, 21.21176
5.319934, -0.1315527, 0.2346594, 0.904002, 92.65742, 48.81393, 23.84117, 21.30588
5.339935, -0.2262793, 0.2716797, 0.974618, 99.42572, 44.1493, 23.56678, 21.21176
5.359934, -0.2275, 0.3101453, 0.9903163, 89.02937, 34.05783, 30.24361, 21.25882
5.379938, -0.1339941, 0.385885, 1.026964, 77.10864, 42.19808, 48.84118, 21.35294
5.407806, -0.1449805, 0.3607983, 1.11098, 71.04156, 62.8993, 50.48751, 21.30588
5.421761, -0.1562109, 0.3759149, 1.084578, 64.48668, 58.26515, 41.61556, 21.30588
5.439936, -0.1884375, 0.373714, 1.130248, 57.87083, 40.27734, 27.46922, 21.25882
5.459935, -0.1950293, 0.3878607, 1.018525, 56.43791, 27.32003, 17.0119, 21.21176
5.479935, -0.2172461, 0.3900305, 1.007547, 48.02327, 5.124903, 7.316781, 21.25882
5.499934, -0.1281348, 0.4416681, 1.023167, 31.86473, 4.850513, 10.06068, 21.30588
5.519936, -0.1037207, 0.4100171, 1.064935, 16.6818, 19.54564, 7.682634, 21.30588
5.539927, -0.1322851, 0.3973584, 0.9905528, 15.52327, 37.32003, 10.7619, 21.30588
5.559933, -0.1647558, 0.3912439, 0.931136, 23.2062, 49.1493, 14.5119, 21.30588
5.579933, -0.2072363, 0.431919, 0.8266436, 30.46229, 46.6188, 16.85946, 21.21176
5.607974, -0.2243262, 0.4148926, 0.898101, 24.73059, 18.26515, 16.34117, 21.16471
5.621954, -0.2023535, 0.4060974, 0.9178682, 24.39522, 25.06393, 18.35337, 21.35294
5.639943, -0.1122656, 0.4112, 0.960491, 20.58424, 41.98466, 14.48141, 21.16471
5.659936, -0.1999121, 0.4328949, 0.8840748, 18.4501, 56.37491, 11.768, 21.25882
5.679938, -0.2545996, 0.4923041, 0.8090056, 26.49888, 60.52125, 9.786292, 21.25882
5.699932, -0.3183203, 0.4630732, 0.7118443, 39.85254, 52.8993, 9.115561, 21.16471
5.719935, -0.2392187, 0.5797937, 0.7701062, 30.73668, 37.01515, 0.8228781, 21.35294
5.739937, -0.3051367, 0.4933032, 0.8835062, 21.13302, 8.295634, -3.292976, 21.35294
5.75993, -0.2963476, 0.4390076, 0.9825356, 30.00498, 8.874903, 8.444829, 21.30588
5.77993, -0.1234961, 0.4937994, 0.8490982, 53.72449, 44.24076, 34.84727, 21.25882
5.808051, -0.1762305, 0.5984943, 0.6744654, 85.73668, 58.23466, 36.73752, 21.21176
5.822053, -0.3412695, 0.6092712, 0.7908416, 79.97449, 44.57613, 10.518, 21.30588
5.839939, -0.3988867, 0.5532172, 0.9559537, 55.18791, 12.44198, -14.60395, 21.25882
5.859932, -0.4682227, 0.5478699, 0.929047, 35.03546, 5.063927, -19.96981, 21.25882
5.879932, -0.3561621, 0.6870752, 0.5623656, 41.6818, 40.52125, 6.585073, 21.30588
5.899931, -0.3798437, 0.5928565, 0.6219201, 48.05376, 57.19808, 16.98141, 21.25882
5.919936, -0.2851172, 0.6196387, 0.6786158, 56.74278, 62.92978, 6.066781, 21.21176
5.939929, -0.3217383, 0.5968206, 0.6289716, 62.56595, 77.89929, 0.518, 21.25882
5.959933, -0.5404883, 0.5519373, 0.7335714, 68.17571, 93.60051, -9.268586, 21.21176
5.979933, -0.4562598, 0.6145618, 0.7169975, 90.30986, 71.64929, -3.292976, 21.25882
6.008296, -0.3383398, 0.6238495, 0.4102309, 140.7367, 54.45417, 14.90824, 21.25882
6.022246, -0.4762793, 0.6601038, 0.3706546, 151.8952, 33.57003, 18.59727, 21.25882
6.039946, -0.4547949, 0.6696203, 0.2764388, 147.9928, 44.17978, 18.17044, 21.30588
6.059938, -0.361289, 0.7431091, 0.423476, 126.4684, 47.25905, 16.82898, 21.25882
6.079931, -0.3998633, 0.87513, 0.7093859, 48.87693, 38.84442, 17.28629, 21.21176
6.099933, -0.3983984, 0.8939148, 0.5153822, 17.77937, 29.45417, 15.24361, 21.30588
6.119934, -0.4054785, 0.7675147, 0.3657052, 48.14522, 34.42368, 12.0119, 21.30588
6.139936, -0.4665137, 0.7562634, 0.3335143, 80.49278, 20.15539, 6.036293, 21.21176
6.159932, -0.4501563, 0.8016162, 0.4271045, 94.63912, 10.15539, 5.548488, 21.35294
6.17993, -0.4367285, 0.8288904, 0.3005597, 95.9806, 5.887098, 8.749707, 21.25882
6.208454, -0.333457, 0.8854034, 0.2837133, 88.84645, 11.64929, 18.53629, 21.25882
6.222386, -0.2516699, 0.8642011, 0.3641785, 80.00498, 17.381, 21.67654, 21.25882
6.239942, -0.3830176, 0.8342382, 0.286592, 59.57815, 23.44807, 15.94483, 21.21176
6.259936, -0.3651953, 0.8281519, 0.2265225, 39.63912, 37.68588, 4.725317, 21.25882
6.279932, -0.4137793, 0.8656519, 0.2018189, 39.36474, 47.35052, 1.463122, 21.30588
6.299928, -0.3979101, 0.85495, 0.1818211, 63.75498, 52.1371, 11.95093, 21.30588
6.319931, -0.385459, 0.8760998, 0.2588224, 58.78547, 28.69198, 27.46922, 21.21176
6.339935, -0.3888769, 0.9265552, 0.2627745, 29.48668, -14.60071, 30.18264, 21.30588
6.359936, -0.395957, 0.8418158, 0.1539424, -2.677951, -28.25925, 18.20093, 21.21176
6.379928, -0.394248, 0.7626355, 0.1199144, -4.659658, -18.13729, 10.82288, 21.16471
6.40869, -0.376914, 0.861767, 0.1276619, 12.99278, 0.1858781, 9.024097, 21.30588
6.422752, -0.3495703, 0.8442096, 0.1072739, 18.29766, 1.83222, 9.054585, 21.30588
6.439938, -0.3337012, 0.8644318, 0.1165576, 14.79156, 5.521244, 7.74361, 21.21176
6.459939, -0.2856054, 0.883424, 0.1680083, -1.519415, -0.271439, 5.639951, 21.4
6.479931, -0.3346777, 0.8707739, 0.2144301, -23.59259, -14.72266, 0.7923903, 21.25882
6.499929, -0.3256445, 0.7769964, 0.1898892, -30.94015, -18.22876, -3.50639, 21.21176
6.519929, -0.3503027, 0.7572662, 0.1690154, -29.93405, -27.67998, -6.219805, 21.30588
6.539935, -0.32125, 0.7397625, 0.1526873, -33.22674, -35.82022, -1.00639, 21.30588
6.559927, -0.300498, 0.7312329, 0.1497857, -34.2938, -22.19217, 1.524098, 21.30588
6.579935, -0.2907324, 0.7370691, 0.1519702, -37.40356, -2.131195, -0.4880976, 21.21176
6.608847, -0.2094336, 0.7619104, 0.2561509, -80.94015, -20.97266, -2.347854, 21.4
6.622865, -0.2504492, 0.773841, 0.3574223, -126.6414, -50.08852, 5.091171, 21.25882
6.639939, -0.2902441, 0.7466089, 0.4991815, -194.5987, -95.75925, 21.2802, 21.35294
6.659936, -0.3669043, 0.7261249, 0.5342288, -252.0377, -158.5032, 47.49971, 21.25882
6.679937, -0.4054785, 0.6436109, 0.2987251, -248.3792, -140.119, 40.79239, 21.25882
6.699928, -0.262168, 0.5687646, 0.2448987, -172.3121, -81.03364, 22.0119, 21.25882
6.719935, -0.1628027, 0.5123407, 0.3946866, -75.63527, -16.46046, 18.29239, 21.35294
6.739938, -0.100791, 0.5570788, 0.8593401, -79.96454, -19.20437, 26.58507, 21.35294
6.759936, -0.2116308, 0.5366296, 0.9354693, -129.4462, -46.8873, 43.68874, 21.35294
6.779938, -0.151084, 0.6145563, 0.7000153, -140.6048, -46.67388, 37.98752, 21.16471
6.808981, -0.06441406, 0.5917005, 0.6919976, -90.14747, -10.08851, 17.59117, 21.25882
6.82306, -0.0778418, 0.5770307, 1.008526, -95.75723, -25.63729, 20.42654, 21.25882
6.839942, -0.1881933, 0.5827765, 1.23601, -141.9767, -45.48486, 25.67044, 21.21176
6.859933, -0.2775488, 0.3372424, 1.067445, -158.1658, -53.1068, 12.25581, 21.30588
6.879931, -0.1327734, 0.3907147, 1.099751, -176.5499, -74.26534, 16.67654, 21.30588
6.899936, 0.001015626, 0.4776892, 0.9521563, -185.2694, -85.21048, 22.86556, 21.21176
6.919933, -0.008505858, 0.5683179, 0.5741176, -130.8792, -18.35071, 29.93873, 21.21176
6.939935, -0.001914062, 0.4553632, 0.9142541, -84.78161, 1.984659, 43.17044, 21.30588
6.95993, -0.1332617, 0.2909247, 1.23259, -97.70844, -1.247049, 38.87166, 21.25882
6.979935, -0.1906347, 0.259032, 1.123353, -75.33039, -5.606805, 11.03629, 21.25882
7.009103, -0.1693945, 0.413194, 1.2351, -124.1719, -57.10071, -19.54298, 21.25882
7.023131, -0.3100195, 0.3240619, 1.29143, -172.2206, -113.0458, -28.14054, 21.30588
7.039943, -0.02608398, 0.3626935, 1.086683, -189.3853, -115.8812, -12.56127, 21.21176
7.059938, -0.055625, 0.297243, 0.8741837, -140.8182, -50.42388, 18.32288, 21.21176
7.079937, 0.2432031, 0.307973, 1.005997, -106.6109, -17.1312, 36.768, 21.21176
7.099936, 0.100625, 0.304552, 1.07104, -87.25112, 7.868805, 43.99362, 21.21176
7.119934, -0.002402343, 0.2631683, 1.149203, -77.98284, -15.33242, 31.00581, 21.30588
7.139933, -0.08077148, 0.1073175, 1.310919, -104.0804, -42.46656, 30.67044, 21.21176
7.159935, -0.1208105, 0.1043768, 1.349487, -130.6353, -44.23486, 36.43264, 21.21176
7.179931, -0.01021484, 0.06324829, 1.306028, -134.9645, -57.31412, 32.98752, 21.30588
7.209269, 0.2734766, -0.01129883, 1.173984, -109.2328, -64.50925, 5.518, 21.21176
7.223321, 0.3288965, -0.038797, 1.128032, -99.59868, -53.19827, 1.859464, 21.25882
7.23994, 0.3208399, -0.07070556, 1.200359, -122.1597, -46.52144, 6.615561, 21.35294
7.259935, 0.2988672, -0.0996936, 1.122559, -163.3792, -22.98486, 36.09727, 21.25882
7.27993, 0.2473535, -0.1126209, 1.06733, -165.2389, 13.11271, 81.82898, 21.35294
7.299931, 0.2253809, -0.1931921, 1.090267, -147.3731, 15.3688, 78.71922, 21.35294
7.319935, -0.02950195, -0.2641132, 1.244786, -135.3914, -41.70436, 30.39605, 21.25882
7.339931, -0.0544043, -0.3612451, 0.8614028, -122.3121, -76.61291, -8.506391, 21.30588
7.359933, 0.07450195, -0.5473047, 0.9789831, -93.22673, -78.41169, -25.39664, 21.30588
7.379931, 0.331582, -0.4411841, 0.9175922, -90.75723, -63.44217, -26.00639, 21.30588
7.409483, 0.1601953, -0.4672083, 0.8150141, -8.684049, -67.92388, -12.80517, 21.25882
7.423538, 0.2058496, -0.3310028, 0.8612759, -16.51942, -62.49705, -2.225903, 21.30588
7.439935, 0.2229395, -0.3599896, 0.9682869, -50.97064, -51.97875, 4.96922, 21.25882
7.459927, 0.2681055, -0.4971362, 0.8642917, -67.3121, -43.35071, 2.072878, 21.30588
7.479935, 0.3140039, -0.5197687, 0.9133035, -80.54381, -35.48486, -5.244195, 21.16471
7.499931, 0.1931543, -0.493504, 0.8264416, -85.45235, -45.75924, -19.05517, 21.21176
7.519931, 0.2546777, -0.4625671, 0.6652854, -59.8121, -42.28364, -19.20761, 21.25882
7.539931, 0.4331445, -0.4793579, 0.7314107, -27.58649, 7.441976, -7.195415, 21.25882
7.559929, 0.3328027, -0.522008, 0.7982206, -25.39137, 9.423683, -11.15883, 21.30588
7.579932, 0.2068262, -0.5472919, 0.8049559, -30.94015, -5.484854, -6.616147, 21.30588
7.609693, 0.2939844, -0.6128382, 0.7505436, -49.59868, -11.88729, -0.0002926588, 21.25882
7.623827, 0.385293, -0.661756, 0.7366939, -53.3182, -9.997049, -1.158829, 21.25882
7.639935, 0.3762598, -0.5755762, 0.7638445, -48.13527, -31.79583, -2.652732, 21.25882
7.659936, 0.3254785, -0.5334308, 0.7597738, -47.95234, -64.75315, -3.689317, 21.30588
7.679932, 0.3613672, -0.5998614, 0.6170207, -27.64746, -69.29584, 0.2740976, 21.25882
7.699931, 0.5444726, -0.6666608, 0.653916, -3.043805, -31.91778, 18.17044, 21.25882
7.719934, 0.4787988, -0.6259924, 0.6916151, -1.946244, -13.3812, 30.45703, 21.30588
7.739934, 0.3733301, -0.5714154, 0.7005986, -14.50722, -17.3751, 24.87776, 21.35294
7.759931, 0.2629785, -0.620852, 0.7287519, -33.5621, -36.27754, -3.628341, 21.25882
7.779929, 0.1992578, -0.6649268, 0.7158507, -57.95234, -55.45436, -36.86005, 21.25882
7.809811, 0.5588769, -0.6269342, 0.5711305, -61.97673, -32.07022, -24.66493, 21.30588
7.82399, 0.5371484, -0.703891, 0.53054, -39.47674, -14.6312, -28.35395, 21.21176
7.839942, 0.4192285, -0.6954052, 0.5181704, -21.36698, 1.496854, -32.2259, 21.30588
7.859933, 0.4016504, -0.5724469, 0.5813602, -17.89137, -12.1312, -28.04908, 21.25882
7.879937, 0.3779688, -0.5234149, 0.5881579, -35.14746, -34.3568, -9.299074, 21.21176
7.899932, 0.4846582, -0.576026, 0.5197117, -29.84259, -26.27754, 21.82898, 21.30588
7.919937, 0.5493555, -0.6371503, 0.5184642, -24.87307, -15.48485, 30.33507, 21.21176
7.939934, 0.5132226, -0.7087585, 0.5094399, -10.08649, -5.576317, 27.10337, 21.21176
7.959929, 0.5386133, -0.7284943, 0.4873226, 3.572049, 4.728561, 26.18873, 21.21176
7.979937, 0.4243555, -0.7144043, 0.5193822, 8.236683, -1.91778, 15.33507, 21.21176
8.009958, 0.2451563, -0.6814972, 0.5548993, 3.937902, -27.74095, 2.530195, 21.25882
8.02413, 0.3362207, -0.6695642, 0.5087483, 4.639122, -19.8751, 6.768, 21.21176
8.039937, 0.3838281, -0.6814862, 0.5053558, 9.700098, -10.02754, 12.10337, 21.35294
8.059935, 0.4690332, -0.6992859, 0.4949024, 10.88912, 3.143195, 17.7741, 21.25882
8.079937, 0.4656152, -0.6693353, 0.490592, 9.913512, 4.911488, 16.82898, 21.35294
8.099938, 0.333291, -0.642525, 0.4791071, 13.57205, -8.350708, 6.828976, 21.30588
8.119933, 0.3660059, -0.6189038, 0.5160228, 12.90132, -18.71656, 13.38385, 21.35294
8.139936, 0.4512109, -0.6829706, 0.5014738, 6.742781, -11.06412, 30.57898, 21.25882
8.15993, 0.4663476, -0.6768988, 0.5743775, -4.019415, -2.954366, 43.17044, 21.21176
8.179937, 0.4231348, -0.6094293, 0.5375831, -6.793805, 4.667585, 43.5363, 21.21176
8.210089, 0.2063379, -0.6946381, 0.5495536, -4.08039, -13.74705, -3.262488, 21.35294
8.224202, 0.117959, -0.738487, 0.5741074, -16.64137, -31.82632, -23.14054, 21.21176
8.239939, 0.3891992, -0.7353125, 0.5352526, -28.16576, -30.78973, -17.34785, 21.25882
8.259935, 0.5625391, -0.6931768, 0.4494711, -23.40966, -14.41778, 9.176537, 21.25882
8.279936, 0.5054101, -0.6466644, 0.4679927, -13.47063, -1.429976, 22.34727, 21.25882
8.299932, 0.4187402, -0.6398572, 0.4586605, 8.96839, 15.46027, 24.268, 21.25882
8.319932, 0.2644434, -0.6082006, 0.5242918, 23.17571, 5.887098, 11.768, 21.25882
8.339935, 0.1882715, -0.6349878, 0.5796104, 17.50498, -23.19827, -3.201512, 21.25882
8.359933, 0.4136133, -0.6834406, 0.5187083, -3.196244, -30.57632, 10.60946, 21.30588
8.379933, 0.5593652, -0.7156061, 0.4242079, -13.01332, -7.588512, 29.96922, 21.30588
8.410322, 0.4607324, -0.6274603, 0.4562484, -12.0682, 20.67368, 29.14605, 21.25882
8.424512, 0.3747949, -0.6435303, 0.4317457, 4.66961, 39.42368, 17.74361, 21.30588
8.43994, 0.2580957, -0.6145373, 0.4582398, 16.16351, 49.45417, 5.822878, 21.21176
8.459935, 0.1890039, -0.6137958, 0.4710594, 18.75498, 24.05783, -8.262488, 21.21176
8.479931, 0.256875, -0.5925982, 0.4973986, 14.33424, 7.594415, -1.829561, 21.21176
8.499935, 0.357461, -0.6622498, 0.4222038, 15.1879, 16.03954, 10.91434, 21.25882
8.519937, 0.3577051, -0.6868665, 0.4434568, 37.87083, 39.78954, 20.39605, 21.30588
8.539933, 0.3276758, -0.6040875, 0.5008446, 73.96839, 71.19197, 23.90215, 21.25882
8.559931, 0.183877, -0.4664538, 0.5674779, 100.5233, 75.06393, 6.432634, 21.30588
8.579933, -0.002890624, -0.438695, 0.6485131, 118.6025, 28.29564, -16.03688, 21.35294
8.610461, 0.2646875, -0.6736896, 0.6763158, 113.1147, 8.265146, -13.75029, 21.4
8.624534, 0.3972559, -0.6418116, 0.6914283, 96.4379, 33.78344, -7.866147, 21.25882
8.639939, 0.4116601, -0.5246936, 0.7205799, 75.85864, 52.65539, -4.024683, 21.21176
8.659938, 0.395791, -0.4418701, 0.827174, 60.55376, 75.61271, -8.232, 21.21176
8.679935, 0.2764063, -0.5049164, 0.7277932, 87.10864, 65.3688, -12.16493, 21.30588
8.699929, 0.2275781, -0.5964978, 0.8445597, 94.51717, 53.75295, -17.28688, 21.30588
8.719934, 0.2505274, -0.662002, 0.969899, 76.74278, 49.24076, -34.29907, 21.30588
8.739932, 0.1877832, -0.6143603, 1.015355, 70.37084, 45.46027, -57.4698, 21.30588
8.759929, 0.3013086, -0.3566724, 0.89766, 84.66961, 60.24686, -45.85395, 21.35294
8.779935, 0.3144922, -0.1783917, 0.8352173, 91.95621, 70.82612, -15.732, 21.21176
8.810619, 0.2632227, -0.5392346, 1.118606, 73.87693, 33.90539, 0.3960488, 21.35294
8.824741, 0.161416, -0.7345019, 1.151688, 87.90133, 19.14929, -18.90273, 21.25882
8.839935, 0.2407617, -0.6089954, 1.107673, 91.92572, 21.43588, -32.80517, 21.25882
8.859933, 0.2126856, -0.3824677, 0.9602545, 85.30986, 34.17978, -48.20151, 21.25882
8.879935, 0.1340723, -0.1669586, 0.958708, 74.09034, 41.6188, -36.4942, 21.35294
8.899933, 0.07230469, -0.2462646, 0.9905069, 69.4562, 28.66149, -24.84786, 21.16471
8.919933, 0.09256836, -0.3000995, 1.029204, 65.58424, 22.41149, -14.7259, 21.25882
8.939932, 0.1833887, -0.3832031, 1.084525, 46.59034, 20.46027, -13.14054, 21.25882
8.959933, 0.3655176, -0.3108478, 1.076809, 41.86473, 59.6371, 4.237512, 21.25882
8.979929, 0.2842188, -0.2331683, 0.9890409, 55.76717, 84.75905, 26.00581, 21.25882
9.010748, 0.0771875, -0.1474591, 0.980659, 61.52937, 62.74686, 24.32898, 21.21176
9.024933, -0.01827148, -0.155445, 1.088072, 73.2062, 37.381, 13.17044, 21.30588
9.039939, -0.06441406, -0.2312122, 1.01885, 95.58425, 17.92978, -4.725903, 21.25882
9.05994, -0.03389648, -0.2314514, 1.039217, 120.9501, -1.612902, -28.07956, 21.25882
9.07993, 0.07962891, -0.1669226, 1.021393, 149.4867, -4.814122, -34.39054, 21.35294
9.099929, 0.1362695, -0.1282513, 1.062374, 160.1574, 7.990757, -30.03078, 21.25882
9.119938, 0.1850977, -0.0137677, 1.157933, 146.3464, 33.11271, -17.56127, 21.35294
9.139937, 0.111123, 0.01620361, 1.199011, 137.0782, 35.18588, -10.42712, 21.16471
9.159932, 0.1279688, 0.06683166, 1.105866, 138.2062, 30.09442, -2.164927, 21.25882
9.179933, 0.04032227, 0.1951935, 1.022453, 141.255, 52.10661, 5.761903, 21.35294
9.210904, -0.05977539, 0.121427, 1.154695, 81.62084, 9.606609, 4.908244, 21.35294
9.225035, -0.09541992, 0.03547241, 1.195534, 51.65132, -9.661684, -8.963708, 21.30588
9.239942, -0.149375, 0.02423828, 1.149845, 24.36473, -24.72266, -22.59176, 21.25882
9.25993, -0.04341797, 0.1072748, 1.079507, 10.7062, -35.21046, -23.68932, 21.21176
9.279929, 0.0459375, 0.2073816, 0.9993215, 25.03546, -36.8568, -14.26859, 21.21176
9.29993, 0.06668945, 0.2653375, 0.8125548, 37.07815, -14.05193, -2.103951, 21.21176
9.319928, 0.04154297, 0.2741357, 0.8620881, 37.6879, -1.91778, 6.615561, 21.21176
9.339934, -0.05000977, 0.1993561, 0.9673231, 27.59644, -12.19217, 4.54239, 21.30588
9.359935, -0.09981445, 0.1277698, 1.115433, 5.309854, -29.08241, -6.067366, 21.25882
9.379937, -0.1374121, 0.1160962, 0.9874651, -16.70234, -33.16778, -13.71981, 21.25882
9.411166, -0.1364355, 0.1175085, 1.03828, -43.74503, -21.46046, -19.69542, 21.35294
9.425353, -0.1278906, 0.1021771, 0.9490431, -52.37308, -22.34461, -31.55517, 21.35294
9.439939, -0.06978516, 0.146734, 0.9271954, -59.26332, -13.89949, -45.33566, 21.30588
9.459932, -0.05855469, 0.2334662, 0.7563552, -59.87308, 13.57002, -51.52468, 21.21176
9.479929, -0.1715918, 0.1776868, 0.7946146, -67.79991, 25.49076, -49.51249, 21.30588
9.49993, -0.1037207, 0.09512024, 0.670077, -34.53771, 71.22247, -48.84176, 21.30588
9.519933, 0.07206055, 0.09311584, 0.9116078, -16.58039, 82.381, -49.11615, 21.30588
9.539932, -0.08638672, 0.01498718, 1.09068, -36.61088, 99.60661, -51.64663, 21.21176
9.559932, -0.2377539, 0.02233521, 1.296511, -55.08649, 58.75295, -61.89054, 21.25882
9.579936, -0.2633887, 0.001610107, 1.125718, -51.91576, -22.92388, -58.35395, 21.25882
9.611351, -0.2514258, -0.03541076, 0.8567526, -27.58649, -42.49705, -33.84176, 21.16471
9.625652, -0.0544043, 0.02421814, 0.8292387, -13.83649, 8.021244, -14.63444, 21.30588
9.639942, -0.002890624, 0.08440063, 0.9926685, -6.702342, 58.32613, -10.732, 21.16471
9.659936, -0.04830078, 0.07218994, 1.295705, -23.16576, 81.40539, -20.30517, 21.25882
9.67994, -0.1957617, 0.03233948, 1.315369, -46.54991, 52.8993, -32.2259, 21.21176
9.699935, -0.1872168, 0.001837158, 1.16937, -47.37308, 28.53954, -27.56127, 21.30588
9.719934, -0.2052832, 0.02134033, 1.0215, -54.99503, 29.91149, -9.329561, 21.21176
9.739937, -0.1757422, 0.03396545, 1.019722, -72.37308, 46.16149, 12.31678, 21.30588
9.759931, -0.04683594, 0.09290222, 0.9480206, -91.00112, 110.8871, 16.49361, 21.30588
9.779935, -0.1169043, 0.07025269, 1.080843, -103.0133, 146.131, 4.877756, 21.30588
9.811472, -0.4047461, -0.1561999, 1.16468, -77.19015, 101.4054, -28.35395, 21.35294
9.825735, -0.5016699, -0.1966382, 1.133887, -59.62917, 55.33832, -40.27468, 21.30588
9.83994, -0.4420996, -0.1859283, 1.017996, -55.17795, 41.07003, -46.61615, 21.25882
9.859934, -0.3117285, -0.0709845, 0.8749376, -75.26942, 72.01515, -51.64663, 21.35294
9.879936, -0.2314062, -0.06096008, 0.9205571, -88.89747, 116.8932, -58.87224, 21.25882
9.899928, -0.4491797, -0.1466449, 1.02, -86.18405, 104.3627, -65.57957, 21.25882
9.919933, -0.4435645, -0.1847852, 1.097409, -93.89747, 52.53344, -57.77468, 21.25882
9.939932, -0.5055762, -0.3678937, 1.038503, -71.73284, 43.08222, -32.56127, 21.25882
9.959934, -0.4953223, -0.3055084, 1.064195, -60.02552, 48.02125, 6.585073, 21.21176
9.979935, -0.4638281, -0.3035522, 0.9364828, -59.47673, 69.02734, 34.23752, 21.25882
10.01163, -0.4355078, -0.2506696, 0.8525538, -82.70844, 85.3688, 33.99361, 21.21176
10.02597, -0.4430762, -0.269657, 0.9203887, -92.73893, 78.69197, 29.90825, 21.25882
10.04001, -0.4626074, -0.3485523, 0.9270768, -91.85478, 80.85661, 29.32898, 21.25882
10.05994, -0.5480567, -0.4693726, 0.9401386, -75.056, 86.25296, 31.67654, 21.25882
10.07994, -0.5722266, -0.4801233, 0.8429793, -50.42186, 102.5639, 42.95703, 21.25882
10.09993, -0.5775977, -0.4039166, 0.7410507, -38.53161, 115.4298, 52.22532, 21.25882
10.11993, -0.5661231, -0.2763031, 0.6658998, -40.17795, 122.5639, 53.29239, 21.25882
10.13993, -0.5754004, -0.209035, 0.5884262, -55.14747, 118.2651, 44.38995, 21.21176
10.15994, -0.6591406, -0.2608899, 0.5330961, -61.94624, 109.3017, 34.45093, 21.25882
10.17994, -0.6752539, -0.3622089, 0.4275723, -44.44624, 112.3505, 34.17654, 21.25882
10.2118, -0.7829199, -0.3943634, 0.462118, -18.71454, 113.0212, 45.7619, 21.16471
10.22608, -0.8087989, -0.3086615, 0.42028, -12.49503, 106.8322, 48.13995, 21.16471
10.2401, -0.7270117, -0.2170953, 0.3771186, -13.34868, 99.02735, 44.23751, 21.21176
10.25993, -0.708457, -0.2083026, 0.307008, -12.43405, 77.44197, 24.72532, 21.30588
10.27994, -0.7106543, -0.2772272, 0.3190596, 2.322049, 66.03954, 10.12166, 21.30588
10.29993, -0.7536231, -0.3612463, 0.412456, 9.364732, 66.28344, 13.62776, 21.21176
10.31993, -0.8737403, -0.3934168, 0.5281649, -2.738927, 70.73466, 21.12776, 21.30588
10.33994, -0.9296485, -0.3680951, 0.4300788, -18.01332, 66.52734, 18.13995, 21.30588
10.35993, -0.8644629, -0.3149994, 0.2894822, -20.51332, 54.08832, 9.54239, 21.25882
10.37994, -0.8192969, -0.2609186, 0.2617712, -15.11698, 29.78954, -4.75639, 21.25882
10.4122, -0.8188087, -0.3741382, 0.3080924, 7.200098, 24.75905, 2.377756, 21.25882
10.42645, -0.8549415, -0.3873212, 0.393408, 11.83424, 41.49686, 12.22532, 21.30588
10.44046, -0.8957129, -0.3549377, 0.481335, -0.9096586, 51.16149, 16.06678, 21.25882
10.45994, -0.9128028, -0.3050067, 0.3873764, -24.65966, 50.06393, 13.59727, 21.30588
10.47994, -0.8503028, -0.2752832, 0.1734138, -28.98893, 39.05783, 2.194829, 21.21176
10.49994, -0.812461, -0.2553198, 0.1335366, -21.24502, 26.16149, -5.945415, 21.21176
10.51994, -0.8405372, -0.257019, 0.1641059, -14.35478, 25.49076, -6.189317, 21.30588
10.53993, -0.8788672, -0.2925806, 0.208806, -16.00112, 40.3688, -0.0002926588, 21.21176
10.55993, -0.916709, -0.3096332, 0.2600737, -28.83649, 53.3871, 0.2131219, 21.30588
10.57994, -0.9145118, -0.3291186, 0.2144098, -38.25722, 39.75905, -4.817366, 21.21176
10.61235, -0.8256446, -0.3176862, 0.1038164, -18.0438, 2.015146, -6.494195, 21.25882
10.62675, -0.7961035, -0.291853, 0.1000376, -11.5499, -3.960464, -6.463707, 21.30588
10.6408, -0.8117286, -0.2891553, 0.06455238, -8.257219, -1.033634, -6.189317, 21.30588
10.65994, -0.8405372, -0.2957532, 0.07084523, -4.08039, 6.009049, -3.902732, 21.25882
10.67994, -0.8918067, -0.2918414, 0.1205971, -3.714537, -1.582415, -3.201512, 21.21176
10.69993, -0.8468848, -0.2767487, 0.1267325, -0.3913659, -12.77144, -3.475903, 21.30588
10.71993, -0.8149024, -0.2516614, 0.1548961, 8.937902, -20.3629, -1.280781, 21.25882
10.73994, -0.8163672, -0.2606891, 0.1371923, 14.18181, -14.99705, -2.683219, 21.25882
10.75994, -0.84542, -0.2891571, 0.1436987, 15.79766, 1.161488, -8.963708, 21.30588
10.77993, -0.8883887, -0.3093793, 0.1456225, 7.779366, 6.40539, -15.00029, 21.30588
10.81258, -0.8605567, -0.3047534, 0.1658301, -11.306, -28.22876, -18.53688, 21.21176
10.82698, -0.8300391, -0.2974707, 0.1597177, -8.927951, -46.70436, -13.96371, 21.25882
10.84104, -0.8354102, -0.2872412, 0.1784668, -3.501122, -58.92998, -6.829561, 21.25882
10.85994, -0.7863379, -0.2623852, 0.1612552, 8.267171, -60.6373, 3.383854, 21.25882
10.87994, -0.772666, -0.3011011, 0.1833165, 24.7001, -40.33242, 9.908244, 21.35294
10.89993, -0.7856055, -0.3539368, 0.2576068, 35.76717, -37.619, 11.24971, 21.25882
10.91993, -0.7870703, -0.3400708, 0.3401163, 43.23668, -60.6373, 9.572878, 21.35294
10.93994, -0.7824317, -0.3456732, 0.304035, 40.58424, -85.42388, 6.828976, 21.25882
10.95993, -0.807334, -0.2899121, 0.2592635, 43.87693, -103.6251, 5.761903, 21.35294
10.97993, -0.8192969, -0.221225, 0.3089, 40.00498, -123.8385, 4.877756, 21.25882
11.01271, -0.7304297, -0.2141382, 0.4349195, 44.27327, -118.1373, 3.597269, 21.25882
11.0271, -0.7314063, -0.2022278, 0.5189117, 45.09644, -100.8507, 0.9753171, 21.25882
11.04107, -0.7560645, -0.2316675, 0.5675117, 44.60864, -90.8812, -6.951512, 21.35294
11.05994, -0.7929297, -0.2942724, 0.5856987, 48.41961, -95.36291, -8.445415, 21.30588
11.07993, -0.8239356, -0.3103656, 0.6058413, 58.14522, -98.92999, 0.06068292, 21.30588
11.09993, -0.7577734, -0.2579828, 0.689662, 64.944, -87.16169, 9.054585, 21.30588
11.11993, -0.7389746, -0.2373193, 0.7535243, 59.91352, -68.41169, 5.304585, 21.21176
11.13993, -0.7475195, -0.2085639, 0.7258605, 49.27327, -71.1251, -1.799073, 21.21176
11.15993, -0.7558203, -0.1839612, 0.7574025, 41.77327, -97.16169, 1.524098, 21.35294
11.17993, -0.7729102, -0.1888318, 0.8058788, 46.34644, -155.119, 8.261903, 21.25882
11.21286, -0.5490332, -0.2263232, 0.8528056, 45.55376, -177.4971, 11.40215, 21.25882
11.22713, -0.4889746, -0.2022119, 0.7903997, 46.6818, -122.8934, 17.68263, 21.35294
11.24111, -0.4936133, -0.2277875, 0.7583867, 50.40132, -71.369, 26.15824, 21.25882
11.25993, -0.630332, -0.2667694, 0.7569206, 52.13912, -48.74705, 17.68263, 21.30588
11.27993, -0.654502, -0.1805823, 0.8208857, 45.82815, -101.0641, -11.12834, 21.30588
11.29993, -0.5158301, -0.09678162, 0.8976103, 26.89522, -184.3263, -29.2381, 21.21176
11.31994, -0.3859472, -0.08555786, 0.9092908, 16.28546, -232.558, -21.21981, 21.4
11.33994, -0.3329687, -0.1440173, 0.8575144, 37.62693, -181.1861, -6.738098, 21.30588
11.35993, -0.3097754, -0.1440265, 0.8474995, 72.07815, -63.50315, 12.0119, 21.30588
11.37994, -0.3561621, -0.1766492, 1.004434, 71.7123, -27.25315, 8.780195, 21.30588
11.413, -0.3568945, -0.08464294, 0.9551682, 54.76108, -70.66779, -31.61615, 21.25882
11.4273, -0.2958594, 0.04758606, 0.9811684, 51.25498, -143.1678, -20.54908, 21.25882
11.44117, -0.4169531, 0.06322754, 1.087205, 59.12083, -235.8812, -13.17103, 21.30588
11.45994, -0.3151465, 0.04956787, 1.104205, 66.9562, -263.4727, -8.841757, 21.25882
11.47993, 0.07962891, 0.01619446, 0.8689075, 100.9196, -142.4361, 14.29849, 21.16471
11.49993, 0.07669922, 0.04377563, 1.240448, 104.1818, -12.71047, 5.213122, 21.25882
11.51993, -0.1103125, -0.09195068, 1.364507, 34.91351, 0.1858781, -15.91493, 21.30588
11.53994, -0.1427832, 0.02547058, 1.244528, -2.098683, -43.47266, -13.96371, 21.25882
11.55993, -0.2028418, 0.01233154, 1.234684, 16.49888, -121.5519, -14.7259, 21.30588
11.57994, -0.08418945, 0.08320557, 1.041331, 70.03547, -166.4909, -25.15273, 21.30588
11.61319, 0.3247461, 0.2540534, 1.03986, 65.61473, -81.1556, -21.18932, 21.25882
11.62737, 0.3606348, 0.2045752, 1.133868, 37.26107, -15.97266, -26.46371, 21.35294
11.64121, 0.133584, 0.04061707, 1.23322, 13.60254, 19.30173, -34.9698, 21.21176
11.65993, -0.02999023, 0.002098388, 1.235711, -11.15356, 25.1249, -34.57346, 21.25882
11.67993, -0.05733398, 0.1250891, 1.11785, -23.10478, -23.65559, -6.738098, 21.25882
11.69993, 0.002968751, 0.1762329, 1.174666, 3.114732, -60.54583, 10.67044, 21.30588
11.71993, 0.07206055, 0.1635705, 1.111808, 31.4379, -59.72266, 2.560683, 21.30588
11.73993, 0.07767578, 0.133595, 1.047891, 36.52937, -33.99095, -22.50029, 21.25882
11.75994, 0.1294336, 0.1301947, 1.089225, 22.2001, -14.23485, -40.88444, 21.25882
11.77994, 0.1208887, 0.09098328, 1.15643, -0.6352683, -27.43607, -52.43932, 21.25882
11.81332, 0.166543, 0.007219238, 1.082377, 3.663512, -78.80803, -44.20761, 21.30588
11.82771, 0.2126856, -0.005957642, 0.937898, 2.962293, -58.6251, -38.96371, 21.25882
11.84159, 0.2454004, 0.1033838, 0.8427009, 4.791561, -36.06412, -25.18322, 21.35294
11.85994, 0.1355371, 0.1925391, 0.8171387, 13.99888, -21.88729, 1.49361, 21.30588
11.87993, 0.06668945, 0.199834, 0.9022081, 12.50498, -22.49705, 5.944829, 21.30588
11.89993, 0.1201563, 0.2580444, 0.9283752, 12.56595, -31.24705, -2.103951, 21.21176
11.91993, 0.2331934, 0.212016, 0.9155377, 32.56595, -34.90559, -13.44542, 21.21176
11.93993, 0.3476953, 0.1842749, 0.9381473, 52.68791, -42.55803, -15.4881, 21.21176
11.95993, 0.3408594, 0.205661, 0.9710017, 59.05986, -46.03364, -12.68322, 21.21176
11.97993, 0.1958399, 0.1959308, 1.002959, 43.78547, -72.34461, -5.701512, 21.30588
12.0134, 0.1355371, 0.2694513, 0.8067642, -0.2389269, -55.02754, 21.67654, 21.35294
12.02774, 0.2517481, 0.3055328, 0.813979, -5.909658, -29.75315, 17.62166, 21.25882
12.04158, 0.3218164, 0.2585279, 0.8587503, -3.165756, -23.71656, 0.09117073, 21.21176
12.05994, 0.4350976, 0.2563611, 0.8623067, 13.38912, -31.46046, -13.62834, 21.25882
12.07994, 0.4646387, 0.1930243, 0.8436277, 21.16351, -42.98486, -23.96371, 21.25882
12.09993, 0.4412012, 0.1925226, 0.8453826, 14.21229, -52.98486, -25.732, 21.35294
12.11994, 0.454873, 0.2356232, 0.8887345, 10.24888, -83.96048, -21.03688, 21.25882
12.13993, 0.5215234, 0.2787134, 0.7993552, 20.61473, -94.78364, -5.792975, 21.35294
12.15994, 0.4775781, 0.3627692, 0.612546, 62.53547, -72.28364, 1.341171, 21.35294
12.17993, 0.5217676, 0.3074756, 0.7626615, 76.68181, -55.51534, 0.8838537, 21.30588
12.21367, 0.5022363, 0.2826209, 0.8244782, 49.91352, -37.19217, -0.2137073, 21.35294
12.22794, 0.4797754, 0.3595758, 0.8016832, 28.14522, -36.21656, 2.74361, 21.21176
12.24179, 0.5107812, 0.3695642, 0.8020963, 10.88912, -50.39339, 4.328976, 21.35294
12.25994, 0.5225, 0.4129315, 0.8686926, 2.444, -88.68608, -11.58566, 21.25882
12.27993, 0.4907617, 0.3529846, 0.6946569, 17.23059, -108.5336, -30.61005, 21.25882
12.29993, 0.4939355, 0.4894196, 0.5886462, 37.9623, -84.75315, -29.51249, 21.25882
12.31993, 0.5588769, 0.3759332, 0.6236087, 44.24278, -51.30803, -34.51249, 21.25882
12.33994, 0.6240625, 0.3474341, 0.6558136, 40.06595, -24.14339, -28.41493, 21.25882
12.35993, 0.5762109, 0.283382, 0.6592374, 27.71839, -0.9726586, -25.12225, 21.35294
12.37993, 0.5344629, 0.3167255, 0.7358244, 11.25498, -1.460464, -23.96371, 21.4
12.41388, 0.5437402, 0.4156262, 0.6842896, -7.616976, -5.606805, -17.19542, 21.30588
12.42816, 0.5666894, 0.4158526, 0.6484066, -8.043805, 1.893195, -13.20151, 21.30588
12.44205, 0.5564355, 0.4061011, 0.5872426, -2.738927, 12.10661, -7.073463, 21.35294
12.45994, 0.5339746, 0.3737323, 0.5796487, 5.462293, 16.131, -0.5490732, 21.4
12.47994, 0.4880762, 0.314317, 0.5944941, 8.998878, 12.77734, -2.408829, 21.30588
12.49993, 0.4158105, 0.2960284, 0.6342528, 2.078146, 11.03954, -5.914927, 21.35294
12.51994, 0.3381738, 0.3043292, 0.7008172, -11.5499, 12.01515, -8.963708, 21.25882
12.53993, 0.3721094, 0.3133173, 0.7260396, -23.83649, 7.350513, 4.146049, 21.35294
12.55993, 0.4033594, 0.3457178, 0.7134616, -36.45844, 4.423683, 13.38385, 21.25882
12.57993, 0.3889551, 0.315957, 0.6832697, -34.08039, 7.746854, 24.75581, 21.35294
12.61397, 0.4568262, 0.3834558, 0.6656425, -25.17795, 25.00295, 32.01191, 21.35294
12.62832, 0.5251855, 0.3649439, 0.6548939, -22.09868, 35.58222, 30.15215, 21.30588
12.64215, 0.4780664, 0.3432831, 0.7097944, -26.61088, 40.00295, 24.96922, 21.35294
12.65994, 0.4350976, 0.3447485, 0.8307761, -46.18405, 36.6493, 15.15215, 21.25882
12.67993, 0.4170312, 0.2955194, 0.8495788, -72.43405, 19.66759, -0.7015122, 21.21176
12.69993, 0.4499902, 0.2395196, 0.8143122, -76.94624, 14.33222, -12.19542, 21.30588
12.71994, 0.4614648, 0.2683344, 0.6868419, -63.22673, 33.78344, -17.19542, 21.21176
12.73994, 0.4648828, 0.2205682, 0.6709575, -30.57429, 89.60661, -12.37834, 21.21176
12.75993, 0.4766016, 0.2407703, 0.7788015, -27.43405, 126.3444, 1.219219, 21.30588
12.77993, 0.3599024, 0.2553741, 0.9081868, -65.056, 102.381, 17.16434, 21.4
12.81412, 0.4204492, 0.1971643, 0.907963, -114.5072, 28.02125, 16.5241, 21.35294
12.82842, 0.5141992, 0.1791174, 0.7958965, -96.85478, 21.46637, 19.96922, 21.30588
12.84222, 0.5608301, 0.201344, 0.7558892, -65.02552, 26.19198, 22.28629, 21.25882
12.85994, 0.4473047, 0.223443, 0.7687917, -13.3182, 46.31393, 23.65824, 21.25882
12.87994, 0.3325586, 0.215188, 0.8997948, -3.013317, 70.06393, 21.06678, 21.25882
12.89993, 0.2761621, 0.1716058, 0.9080089, -16.58039, 87.16759, 16.82898, 21.16471
12.91994, 0.2720117, 0.08390442, 0.9300097, -27.40356, 59.54564, 17.71312, 21.35294
12.93993, 0.3701563, 0.1240991, 1.005201, -20.72673, 28.8749, 23.65824, 21.25882
12.95993, 0.3909082, 0.1111499, 0.9905528, -5.574293, 22.65539, 19.0241, 21.30588
12.97993, 0.3198633, 0.1712866, 0.8663896, 3.663512, 42.99076, 12.83507, 21.30588
13.01427, 0.2676172, 0.1713495, 1.011228, -1.275512, 56.34442, 12.71312, 21.30588
13.02856, 0.2331934, 0.1413849, 0.9661215, 0.1879025, 51.31393, 10.45702, 21.30588
13.04235, 0.2737207, 0.11901, 1.013034, 6.529366, 50.12491, 10.42654, 21.30588
13.05993, 0.3205957, 0.1243292, 1.216638, 1.407415, 43.60052, 15.94483, 21.4
13.07993, 0.3577051, 0.1913202, 1.188385, -1.732829, 57.04564, 24.38995, 21.25882
13.09993, 0.3257227, 0.2634113, 0.9688829, -23.98893, 109.1798, 33.5363, 21.35294
13.11993, 0.2405176, 0.1877246, 0.9196799, -34.20234, 139.4847, 25.60946, 21.25882
13.13993, 0.2668848, 0.1137634, 0.9702987, -22.7999, 125.8566, 16.73751, 21.35294
13.15993, 0.1826563, 0.1196667, 1.147893, -21.73283, 59.05783, 12.13385, 21.35294
13.17994, 0.1211328, 0.1134021, 1.266858, -27.98283, 19.57612, 1.615561, 21.35294
13.21445, 0.1304102, 0.1101935, 1.227186, -15.5438, 66.03954, -10.61005, 21.30588
13.22884, 0.1658106, 0.1518616, 1.1167, -23.13527, 93.41759, -11.00639, 21.30588
13.24268, 0.1323633, 0.1835004, 0.9968431, -38.50112, 103.9664, -11.21981, 21.21176
13.25993, 0.03934571, 0.1550372, 0.823496, -26.88527, 88.8749, -9.90883, 21.4
13.27994, 0.02860352, 0.09165955, 0.7889599, 9.700098, 59.1493, -9.512488, 21.30588
13.29993, -0.00923828, 0.05496032, 0.8597781, 28.75498, 16.34442, -9.116147, 21.30588
13.31994, -0.09200195, 0.06006897, 1.104718, 17.07815, -5.027537, -22.9881, 21.35294
13.33993, -0.0465918, 0.02448975, 0.9830954, 17.50498, 11.64929, -35.76249, 21.21176
13.35993, 0.01761719, -0.001278076, 0.7725629, 26.71229, 27.22856, -34.90883, 21.25882
13.37993, 0.01249024, 0.1703369, 0.7768943, -17.34259, 19.48466, -34.78688, 21.35294
13.41469, -0.04048828, 0.09829284, 0.8018661, -46.09259, -5.942171, -8.232, 21.25882
13.42907, -0.04463867, 0.1031281, 0.9081205, -55.90966, 3.204171, -2.652732, 21.30588
13.44295, -0.04756836, 0.1187469, 0.9427515, -63.98893, 16.83222, -2.408829, 21.30588
13.45994, -0.105918, 0.01083496, 0.8960307, -59.72064, 26.83222, -26.06737, 21.30588
13.47994, -0.05831055, 0.02618958, 0.8526846, -31.12307, 23.90539, -46.67712, 21.30588
13.49993, -0.03023437, 0.09779419, 0.9943513, -11.67185, -14.6312, -36.86005, 21.30588
13.51994, -0.03072265, 0.01088379, 0.7990155, 13.14522, -37.74095, -32.04298, 21.30588
13.53993, -0.01143555, 0.06396301, 0.8409192, 13.57205, -56.369, -20.33566, 21.30588
13.55994, -0.00118164, 0.06588013, 0.8593744, 32.50498, -39.8751, -1.494195, 21.30588
13.57993, 0.008095704, 0.08949829, 0.9077367, 43.99888, 4.911488, 0.9753171, 21.30588
13.61477, -0.06124023, 0.02646301, 0.8812241, 63.35864, -15.48485, -15.00029, 21.30588
13.62928, -0.07808594, 0.01398621, 0.9802021, 90.30986, -40.39339, -23.29298, 21.35294
13.64314, 0.001015626, 0.1323645, 1.205968, 86.74278, -61.55193, -31.28078, 22.2
13.65993, 0.01786133, 0.2275989, 1.349067, 51.6818, -63.80803, -33.75029, 21.30588
13.67994, -0.05367188, 0.2079254, 1.105004, 18.63302, -32.83242, -22.83566, 21.25882
13.69994, -0.1254492, 0.1918024, 0.9327787, 8.572049, -1.978756, -22.83566, 21.30588
13.71993, 0.01786133, 0.1462726, 0.7342691, 11.16351, 11.34442, -7.835659, 21.35294
13.73994, 0.105752, 0.1937689, 0.975082, -1.458439, -5.240952, 3.627756, 21.35294
13.75993, 0.007607423, 0.1732922, 1.016758, -22.43405, 11.03954, 0.7923903, 21.21176
13.77993, -0.02754883, 0.1265045, 1.095682, -16.67185, 9.484659, -5.823463, 21.25882
13.81492, 0.02103516, 0.1486902, 1.000174, 18.57205, -0.05802441, -2.835659, 21.30588
13.82938, 0.07791992, 0.1469983, 0.9874567, 18.75498, -6.003147, -1.524683, 21.25882
13.84316, 0.09110352, 0.1543457, 1.010949, -2.068195, -5.179976, -0.4576097, 21.35294
13.85993, 0.07499023, 0.160426, 1.075442, -34.5682, -4.539732, 6.950927, 21.30588
13.87993, 0.01932617, 0.07250854, 1.072052, -47.00722, -1.978756, 13.41434, 21.25882
13.89993, -0.08101563, 0.07246215, 1.014595, -29.14137, 6.496854, 1.49361, 21.35294
13.91993, 0.03910156, -0.1464508, 0.9416628, -8.866976, 29.48466, -16.21981, 21.35294
13.93993, 0.00272461, 0.06836426, 1.018407, -21.79381, 32.01515, -20.94542, 21.25882
13.95994, 0.04007813, 0.08001281, 1.063548, -33.92795, 30.91759, -22.04298, 21.30588
13.97993, 0.02396484, 0.07641296, 1.089967, -40.02552, 21.3749, -23.96371, 21.4
14.01517, -0.06172852, -0.001324464, 0.9852302, -15.2999, 13.93588, -13.84176, 21.35294
14.02976, -0.01875976, 0.001116943, 1.043289, -5.482829, 9.545635, -13.26249, 21.4
14.04363, -0.02364258, -0.009603883, 1.047129, 2.200098, -9.173878, -6.311268, 21.30588
14.05994, -0.06270508, -0.004526368, 1.161518, 6.102537, -33.56412, -3.963707, 21.30588
14.07994, -0.07857422, 0.06300354, 1.219558, -1.245024, -38.6251, -2.652732, 21.25882
14.09993, -0.09712891, -0.03126709, 1.059135, -1.915756, -14.81412, -10.00029, 21.35294
14.11993, -0.07369141, -0.02879517, 1.033205, 1.712293, -8.442171, -11.37225, 21.35294
14.13994, 0.0278711, -0.006198731, 1.027015, -6.85478, -9.234854, -7.378342, 21.35294
14.15993, -0.03584961, -0.02640747, 0.9730181, -18.3182, 3.021244, -13.78078, 21.35294
14.17993, -0.06197266, 0.01427246, 1.037648, -17.34259, 9.728561, -16.12834, 21.35294
14.21534, -0.1044531, 0.02475586, 1.141491, 16.4379, -22.95437, -6.28078, 21.30588
14.2299, -0.04976563, 0.0449292, 1.116753, 4.852537, -19.93607, 1.585073, 21.30588
14.24369, -0.04024414, 0.009145508, 1.04402, -8.592586, -7.283635, 2.164341, 21.30588
14.25994, 0.002968751, 0.006188354, 1.026394, -12.19015, -2.100707, -1.280781, 21.30588
14.27993, 0.01102539, 0.009408568, 0.9631828, -17.37307, -2.649488, -7.805171, 21.30588
14.29993, -0.0002050772, 0.01235474, 0.9660628, -3.866976, -14.08242, -6.70761, 21.30588
14.31993, -0.005576171, 0.003059082, 0.9939211, -6.366976, -5.119, -7.317366, 21.30588
14.33994, -0.007041015, 0.01595337, 1.023442, -10.02551, 2.960268, -3.232, 21.30588
14.35994, 0.01249024, 0.04445313, 1.078081, -16.7938, -9.265341, 8.932634, 21.30588
14.37993, 0.03080078, 0.02260376, 1.022147, -17.7999, -20.21046, 10.2741, 21.30588
14.41547, 0.004189454, 0.01159119, 0.9969336, -0.6352683, 0.4602683, -10.39664, 21.30588
14.42999, -0.05000977, -0.003995362, 0.9978758, -1.549902, 5.643195, -9.024684, 21.35294
14.44386, -0.01558594, 0.01426025, 0.9954114, -3.653561, 5.643195, -4.451512, 21.25882
14.45993, -0.02754883, 0.02376831, 1.012327, -5.513317, -6.308024, 1.219219, 21.25882
14.47993, -0.0268164, 0.01820496, 1.027059, -7.464537, -4.356805, 2.774097, 21.25882
14.49993, 0.009316407, 0.007415161, 1.017432, -6.85478, 1.710268, 0.5484878, 21.35294
14.51994, 0.01834961, 0.07296143, 1.095756, -19.17185, -2.192171, -7.561268, 21.30588
14.53993, 0.001259767, 0.01061218, 1.019759, -20.72673, -7.283635, -10.18322, 21.16471
14.55994, -0.03243164, -0.01323059, 0.9271966, -17.89137, 1.313927, -13.87225, 21.25882
14.57994, 0.0237207, 0.005502929, 0.9240202, -18.71454, 19.85051, -19.29907, 21.30588
14.61568, -0.008749999, 0.01330078, 1.027987, -32.556, 25.15539, -19.51249, 21.35294
14.63015, -0.05416016, -0.005695191, 1.088158, -23.07429, 13.50905, -12.01249, 21.30588
14.64407, -0.08101563, 0.00939331, 1.137458, 4.425707, 0.3383171, -8.963708, 21.21176
14.65994, -0.07808594, 0.001401367, 1.109116, 14.05985, 8.417585, -5.549073, 21.25882
14.67994, -0.008261718, -0.008158569, 0.9830736, 4.181805, -2.679976, 2.865561, 21.25882
14.69993, 0.0369043, -0.05123413, 0.9230768, -6.610878, -9.387293, 2.713122, 21.25882
14.71993, 0.01371094, -0.02029785, 0.9544104, -18.10478, 2.045634, -3.841756, 21.30588
14.73993, 0.02030273, -0.06537903, 0.9276696, -30.69625, 11.74076, -9.634439, 21.35294
14.75994, -0.0255957, -0.09238831, 0.9010001, -48.47064, 22.74686, -19.45151, 21.35294
14.77993, 0.09696289, -0.06115295, 1.139364, 46.80376, 11.43588, -18.38444, 21.35294
14.81582, 0.09085938, -0.04687012, 1.209701, 20.82815, -0.3933902, -1.189317, 21.4
14.83018, 0.01273438, 0.004083862, 1.13542, 0.5842439, -8.259245, 0.06068292, 21.35294
14.84407, -0.03804687, -0.03709106, 1.094837, -11.67185, -4.783634, -7.927122, 21.30588
14.85993, -0.0346289, -0.07634033, 0.9345489, -7.677951, 3.600512, -9.146635, 21.35294
14.87994, -0.05904297, -0.05315552, 0.8810724, 11.89522, 6.374903, -11.89054, 21.35294
14.89993, -0.03438476, -0.05320251, 0.9391123, 30.7062, 1.771244, -4.299073, 21.30588
14.91993, 0.07132813, -0.06536072, 0.8352843, 49.36473, -8.228756, 1.615561, 21.25882
14.93993, 0.02225586, -0.02570251, 1.000584, 56.65132, -22.71046, 8.414342, 21.30588
14.95994, -0.135459, 0.06299255, 1.353913, 26.83425, 12.07612, -14.57346, 21.25882
14.97993, -0.01509766, 0.06202393, 1.098251, -5.269415, -8.503147, 1.097268, 21.35294
15.01609, -0.01485351, -0.03621582, 0.9515049, 2.444, 5.002952, -0.4271219, 21.25882
