time,acc_x,acc_y,acc_z,gyro_x,gyro_y,gyro_z,temp
0.0, -0.05566406, 0.008544922, 0.8234863, 37.16464, -6.310976, 13.23171, 20.55294
0.009941, -0.04467773, 0.01293945, 0.8239746, -1.310976, -1.219512, -0.3658537, 20.55294
0.019933, -0.0480957, 0.01196289, 0.815918, -1.25, -1.158537, -0.7317073, 20.45882
0.029929, -0.05224609, 0.01245117, 0.8112793, -1.310976, -0.8536586, -0.4573171, 20.55294
0.039922, -0.05126953, 0.01049805, 0.8227539, -1.067073, -1.006098, -0.7317073, 20.55294
0.049929, -0.04589844, 0.009521484, 0.8190918, -1.189024, -1.128049, -0.7317073, 20.6
0.059924, -0.05664063, 0.01269531, 0.8188477, -1.128049, -1.006098, -0.5182927, 20.55294
0.069928, -0.04174805, 0.007568359, 0.8171387, -1.067073, -1.036585, -0.6402439, 20.55294
0.07993, -0.04980469, 0.008300781, 0.8161621, -1.219512, -1.158537, -0.5792683, 20.55294
0.089929, -0.0480957, 0.005859375, 0.8134766, -1.189024, -1.128049, -0.6402439, 20.6
0.105273, -0.04443359, 0.009765625, 0.8215332, -1.25, -1.189024, -0.4268293, 20.50588
0.11484, -0.05053711, 0.009033203, 0.8134766, -1.310976, -0.9756098, -0.5182927, 20.55294
0.124276, -0.04711914, 0.01123047, 0.8225098, -1.280488, -0.8841463, -0.6707317, 20.55294
0.133716, -0.05151367, 0.009521484, 0.8151855, -1.158537, -1.097561, -0.4573171, 20.6
0.143082, -0.05297852, 0.006103516, 0.8129883, -1.158537, -1.219512, -0.5487805, 20.6
0.152517, -0.04516602, 0.01074219, 0.8085938, -1.097561, -1.006098, -0.3963415, 20.55294
0.161917, -0.04174805, 0.007568359, 0.8225098, -1.006098, -1.219512, -0.5182927, 20.45882
0.171351, -0.05297852, 0.005615234, 0.8173828, -1.25, -1.006098, -0.4573171, 20.6
0.180718, -0.04467773, 0.009521484, 0.8105469, -1.189024, -1.128049, -0.5487805, 20.55294
0.19009, -0.04858398, 0.0078125, 0.8112793, -1.097561, -1.219512, -0.5487805, 20.6
0.205141, -0.04321289, 0.01123047, 0.8125, -1.25, -1.036585, -0.6097561, 20.55294
0.214651, -0.04492188, 0.01000977, 0.8166504, -1.189024, -1.158537, -0.6097561, 20.55294
0.224071, -0.04858398, 0.01074219, 0.8137207, -1.128049, -1.219512, -0.3963415, 20.64706
0.233503, -0.04785156, 0.009765625, 0.8164063, -1.158537, -1.280488, -0.4878049, 20.69412
0.242928, -0.0534668, 0.01171875, 0.8151855, -1.158537, -1.25, -0.4878049, 20.55294
0.252308, -0.05004883, 0.01293945, 0.8225098, -1.128049, -1.097561, -0.4573171, 20.6
0.261715, -0.04907227, 0.01123047, 0.8178711, -1.128049, -1.219512, -0.5487805, 20.64706
0.271102, -0.0559082, 0.009521484, 0.817627, -1.158537, -0.9756098, -0.3963415, 20.55294
0.280499, -0.04638672, 0.001953125, 0.814209, -1.128049, -0.8841463, -0.7317073, 20.6
0.289926, -0.0480957, 0.01171875, 0.8210449, -1.219512, -1.158537, -0.6097561, 20.69412
0.305154, -0.04785156, 0.005126953, 0.8210449, -1.280488, -1.036585, -0.5182927, 20.64706
0.314705, -0.05053711, 0.01293945, 0.8200684, -1.158537, -1.097561, -0.6402439, 20.6
0.324099, -0.04516602, 0.01000977, 0.8181152, -1.25, -1.189024, -0.5182927, 20.55294
0.33353, -0.04394531, 0.01269531, 0.8134766, -1.280488, -1.371951, -0.5792683, 20.64706
0.342947, -0.0480957, 0.007568359, 0.8110352, -1.310976, -1.158537, -0.4878049, 20.69412
0.352309, -0.04956055, 0.01049805, 0.8227539, -1.25, -1.25, -0.5182927, 20.64706
0.361651, -0.05175781, 0.001220703, 0.8085938, -1.25, -1.097561, -0.5487805, 20.69412
0.371061, -0.05273438, 0.01147461, 0.8203125, -1.402439, -1.189024, -0.6707317, 20.64706
0.380422, -0.04785156, 0.01293945, 0.8125, -1.189024, -1.219512, -0.4878049, 20.69412
0.389928, -0.05102539, 0.007080078, 0.8239746, -1.280488, -1.280488, -0.5487805, 20.6
0.405236, -0.04541016, 0.009277344, 0.8200684, -1.25, -1.219512, -0.4573171, 20.6
0.414813, -0.05297852, 0.01220703, 0.8161621, -1.158537, -1.006098, -0.5487805, 20.69412
0.424218, -0.04858398, 0.01049805, 0.814209, -1.128049, -0.9756098, -0.3658537, 20.74118
0.433648, -0.04663086, 0.01318359, 0.8166504, -1.310976, -1.067073, -0.5182927, 20.69412
0.443034, -0.04980469, 0.008789063, 0.8254395, -1.189024, -1.067073, -0.5792683, 20.64706
0.452416, -0.04541016, 0.006347656, 0.8234863, -1.402439, -1.097561, -0.4878049, 20.64706
0.461824, -0.04443359, 0.01049805, 0.8164063, -1.189024, -1.158537, -0.4573171, 20.69412
0.471242, -0.05004883, 0.01098633, 0.8178711, -1.189024, -1.189024, -0.5487805, 20.55294
0.480591, -0.04663086, 0.009277344, 0.8134766, -1.371951, -1.341463, -0.5792683, 20.64706
0.489954, -0.04296875, 0.01123047, 0.8085938, -1.280488, -1.25, -0.4878049, 20.64706
0.505399, -0.04785156, 0.01245117, 0.814209, -1.463415, -1.341463, -0.6097561, 20.6
0.514938, -0.05151367, 0.01049805, 0.8178711, -1.341463, -1.371951, -0.6097561, 20.69412
0.524437, -0.04956055, 0.008544922, 0.8171387, -1.310976, -1.25, -0.4268293, 20.64706
0.533838, -0.04492188, 0.008056641, 0.8144531, -1.463415, -1.067073, -0.4878049, 20.74118
0.543259, -0.04833984, 0.008056641, 0.8171387, -1.280488, -1.280488, -0.4878049, 20.6
0.552648, -0.04638672, 0.006591797, 0.8017578, -1.341463, -1.097561, -0.3353659, 20.64706
0.56206, -0.05297852, 0.01049805, 0.8063965, -1.219512, -1.097561, -0.4268293, 20.64706
0.57146, -0.04833984, 0.007080078, 0.8066406, -0.9756098, -1.067073, -0.6707317, 20.69412
0.580865, -0.04638672, 0.01318359, 0.8222656, -1.280488, -1.128049, -0.6097561, 20.64706
0.590249, -0.05004883, 0.0078125, 0.8166504, -1.463415, -1.189024, -0.5182927, 20.6
0.609659, -0.04858398, 0.01464844, 0.8513184, -0.9146341, -1.371951, -0.5487805, 20.78824
0.619133, -0.05517578, 0.008300781, 0.840332, -2.012195, -1.920732, -0.6707317, 20.69412
0.628555, -0.04907227, 0.008544922, 0.8056641, -2.347561, -0.9756098, -0.7317073, 20.78824
0.637987, -0.05126953, 0.02319336, 0.8195801, -7.560976, -1.554878, -0.7317073, 20.64706
0.647373, -0.0390625, 0.0078125, 0.8076172, -6.646342, -1.371951, -0.6707317, 20.69412
0.656904, -0.04541016, 0.02026367, 0.8522949, -7.408537, -1.829268, -0.7926829, 20.69412
0.666332, -0.03857422, -0.008544922, 0.795166, -3.993902, -1.371951, -0.7621951, 20.64706
0.675732, -0.05224609, 0.00390625, 0.8198242, -3.445122, -1.128049, -0.5487805, 20.64706
0.68512, -0.05566406, -0.003173828, 0.8203125, -1.493902, -0.8841463, -0.4878049, 20.78824
0.694527, -0.05224609, 0.004882813, 0.8178711, -1.219512, -1.067073, -0.6097561, 20.64706
0.714177, -0.05175781, -0.001708984, 0.8198242, -1.189024, -1.067073, -0.4268293, 20.69412
0.723747, -0.04345703, 0.003662109, 0.822998, -1.341463, -1.128049, -0.5792683, 20.64706
0.733095, -0.04858398, 0.002685547, 0.8166504, -1.310976, -1.128049, -0.5182927, 20.69412
0.742473, -0.04956055, 0.007324219, 0.817627, -1.097561, -1.280488, -0.5792683, 20.64706
0.75187, -0.0480957, 0.003662109, 0.8171387, -1.067073, -1.067073, -0.5182927, 20.64706
0.761307, -0.04736328, 0.009033203, 0.8225098, -1.219512, -1.25, -0.3353659, 20.69412
0.77067, -0.04589844, 0.004638672, 0.8161621, -1.25, -1.097561, -0.6097561, 20.64706
0.780028, -0.0456543, -0.002685547, 0.8193359, -1.25, -1.158537, -0.6097561, 20.69412
0.789374, -0.05029297, 0.009765625, 0.8115234, -1.432927, -1.25, -0.4878049, 20.64706
0.798766, -0.04785156, 0.004150391, 0.817627, -1.067073, -1.067073, -0.6097561, 20.6
0.818625, -0.04711914, 0.01123047, 0.8166504, -1.158537, -1.097561, -0.4878049, 20.78824
0.828118, -0.04638672, 0.003417969, 0.8105469, -1.097561, -1.097561, -0.5487805, 20.64706
0.83754, -0.05273438, 0.006591797, 0.8129883, -1.097561, -1.128049, -0.4573171, 20.74118
0.8469521, -0.04443359, 0.004882813, 0.8193359, -1.158537, -1.189024, -0.4878049, 20.78824
0.8564, -0.04785156, 0.0004882813, 0.8171387, -1.158537, -1.067073, -0.3658537, 20.69412
0.865771, -0.04248047, 0.004150391, 0.8103027, -1.219512, -1.189024, -0.3963415, 20.74118
0.875177, -0.05029297, 0.003662109, 0.8134766, -1.219512, -1.341463, -0.5487805, 20.74118
0.884509, -0.04858398, 0.006835938, 0.8210449, -1.097561, -0.9756098, -0.4878049, 20.74118
0.893907, -0.05200195, 0.007080078, 0.8137207, -1.067073, -1.310976, -0.6402439, 20.69412
0.903259, -0.04785156, 0.003417969, 0.817627, -1.219512, -1.219512, -0.7012195, 20.74118
0.923264, -0.04272461, -0.0007324219, 0.8254395, -1.280488, -1.097561, -0.5182927, 20.78824
0.932844, -0.04638672, 0.005615234, 0.8166504, -1.219512, -1.067073, -0.5792683, 20.69412
0.942269, -0.04345703, 0.006347656, 0.8098145, -1.280488, -1.25, -0.4268293, 20.64706
0.951641, -0.046875, 0.008056641, 0.8173828, -1.189024, -1.097561, -0.4878049, 20.78824
0.9610229, -0.05126953, 0.005859375, 0.8190918, -1.25, -1.158537, -0.7317073, 20.74118
0.970426, -0.04541016, 0.01025391, 0.8125, -1.310976, -1.219512, -0.4268293, 20.74118
0.979796, -0.05297852, 0.005859375, 0.8139648, -1.158537, -1.097561, -0.4878049, 20.78824
0.989197, -0.04858398, 0.002441406, 0.8200684, -1.341463, -1.219512, -0.5487805, 20.74118
0.99859, -0.04492188, 0.003173828, 0.8161621, -1.280488, -1.189024, -0.4573171, 20.78824
1.007979, -0.05810547, 0.004150391, 0.8103027, -1.310976, -1.158537, -0.4268293, 20.74118
1.028171, -0.04077148, 0.002929688, 0.8144531, -1.25, -1.128049, -0.5182927, 20.69412
1.037686, -0.04711914, 0.0007324219, 0.8063965, -1.219512, -1.097561, -0.4573171, 20.69412
1.047123, -0.04882813, 0.001953125, 0.8200684, -1.189024, -1.097561, -0.4573171, 20.74118
1.05655, -0.04101563, 0.004882813, 0.8154297, -1.189024, -1.128049, -0.5792683, 20.69412
1.065936, -0.04541016, 0.003417969, 0.809082, -1.310976, -0.9146341, -0.5487805, 20.74118
1.075334, -0.04785156, 0.004882813, 0.8217773, -1.280488, -1.219512, -0.4573171, 20.74118
1.084769, -0.05004883, 0.003417969, 0.8083496, -1.067073, -0.9756098, -0.6097561, 20.78824
1.094131, -0.04443359, 0.003662109, 0.8146973, -1.158537, -1.067073, -0.5487805, 20.64706
1.103544, -0.05249023, 0.01635742, 0.8483887, -3.719512, -1.189024, -0.5792683, 20.83529
1.11292, -0.04516602, -0.01416016, 0.7958984, -1.493902, -0.8231708, -0.7012195, 20.74118
1.133281, -0.05102539, 0.01879883, 0.8078613, -1.219512, -1.036585, -0.0304878, 20.74118
1.142766, -0.04418945, 0.04370117, 0.8137207, -1.036585, -1.006098, -1.402439, 20.74118
1.152205, -0.07592773, 0.04418945, 0.8127441, -0.1219512, -1.128049, -4.573171, 20.74118
1.161614, -0.06958008, 0.01635742, 0.8205566, -0.5182927, -1.402439, -6.128049, 20.78824
1.171022, -0.06762695, 0.009765625, 0.8212891, -1.006098, -1.189024, -5.518293, 20.64706
1.180421, -0.006835938, 0.02905273, 0.8203125, -1.310976, -1.310976, -3.841464, 20.69412
1.189809, -0.01513672, -0.0378418, 0.8129883, -1.219512, -1.036585, -1.554878, 20.83529
1.199201, -0.02929688, -0.1096191, 0.8190918, -0.8841463, -1.585366, -1.646341, 20.83529
1.208596, -0.07104492, -0.5627441, 0.8813477, 2.378049, -0.09146341, -5.945122, 20.78824
1.21799, -0.08007813, -0.07250977, 0.7805176, 0.1829268, -1.310976, -3.262195, 20.74118
1.238528, -0.07861328, 0.1345215, 0.8242188, -2.042683, -1.829268, 2.804878, 20.83529
1.248069, -0.09082031, 0.2131348, 0.8181152, -1.25, -2.195122, 3.018293, 20.69412
1.257478, -0.02758789, 0.09838867, 0.7980957, -1.859756, -1.829268, 1.585366, 20.74118
1.266844, -0.0559082, 0.0234375, 0.7924805, -1.829268, -1.402439, 1.067073, 20.74118
1.276255, -0.03637695, 0.02026367, 0.8266602, -0.8231708, -1.402439, -1.128049, 20.78824
1.285657, -0.04443359, 0.001220703, 0.8154297, -1.128049, -1.432927, -3.384146, 20.74118
1.295057, -0.05371094, -0.005859375, 0.8061523, -2.042683, -0.8841463, -3.75, 20.88235
1.304448, -0.05249023, -0.04418945, 0.8166504, -2.134146, -1.707317, -3.810976, 20.74118
1.313817, -0.04760742, -0.003417969, 0.807373, -2.073171, -1.432927, -2.621951, 20.74118
1.323263, -0.01977539, 0.04101563, 0.8972168, -6.52439, -4.207317, -0.3353659, 20.69412
1.344017, -0.08618164, 0.006835938, 0.9680176, -15.82317, -13.78049, 0.2439024, 20.88235
1.353575, -0.1191406, 0.003662109, 0.9333496, -16.58537, -16.12805, -2.5, 20.83529
1.362999, -0.1169434, 0.01928711, 0.8713379, -14.87805, -18.90244, -6.920732, 20.69412
1.372406, -0.1091309, 0.04760742, 0.9309082, -15.73171, -23.38415, -9.054878, 20.88235
1.381819, 0.01611328, 0.06420898, 1.04126, -17.46951, -30.42683, -8.018292, 20.64706
1.391179, 0.06469727, 0.03100586, 1.057373, -10.03049, -44.48171, -4.817073, 20.78824
1.400527, 0.02856445, 0.05859375, 1.108398, -8.841464, -53.56708, 2.042683, 20.69412
1.409897, -0.1645508, 0.009765625, 0.9890137, -15.42683, -62.40854, 5.121951, 20.74118
1.419215, -0.09545898, -0.05395508, 0.8845215, -7.256098, -71.31097, 10.2439, 20.74118
1.428649, -0.1005859, -0.03833008, 0.6618652, -12.98781, -69.14634, 16.21951, 20.83529
1.449551, -0.04248047, -0.01220703, 0.7211914, 11.28049, -71.61585, 19.84756, 20.78824
1.459038, 0.09228516, -0.04272461, 0.791748, 13.5061, -66.58536, 18.23171, 20.78824
1.468492, 0.0703125, 0.06591797, 0.9594727, 15.09146, -76.06708, 14.81707, 20.83529
1.47787, 0.04589844, 0.109375, 1.034424, 6.890244, -79.69512, 14.14634, 20.69412
1.487202, 0.09375, 0.0480957, 0.6850586, 19.96951, -88.07927, 13.84146, 20.78824
1.496521, 0.05908203, 0.08251953, 0.6140137, 44.02439, -91.37196, 22.22561, 20.74118
1.505827, 0.3100586, 0.1655273, 0.7382813, 48.96342, -72.80488, 22.04268, 20.69412
1.515178, 0.2746582, -0.001220703, 0.5898438, 25.06098, -50.06098, 14.20732, 20.74118
1.524534, 0.2285156, -0.02685547, 0.6889648, 1.554878, -56.64634, 9.908537, 20.83529
1.533872, 0.2680664, -0.04785156, 0.8605957, -8.719512, -59.90854, 7.77439, 20.92941
1.554996, 0.1794434, -0.2280273, 0.861084, 8.658537, -43.81098, 4.939024, 20.83529
1.564564, 0.1237793, -0.09448242, 0.7255859, 12.56098, -20.54878, 0.2743902, 20.74118
1.57403, 0.184082, -0.05200195, 0.7409668, 9.085366, 16.25, -0.06097561, 20.69412
1.583453, 0.2355957, 0.0007324219, 0.6987305, 1.280488, 64.63415, 0.9146341, 20.74118
1.592797, 0.255127, 0.03442383, 0.7521973, -9.573171, 114.5427, 1.859756, 20.69412
1.602141, 0.1911621, 0.06298828, 0.9155273, -16.95122, 150.7012, 0.1829268, 20.74118
1.611447, 0.09179688, 0.09838867, 1.157227, -22.89634, 164.8171, -1.554878, 20.74118
1.62079, -0.007324219, 0.1838379, 1.168701, -29.26829, 162.1037, -3.780488, 20.78824
1.63009, -0.04077148, 0.2026367, 1.212402, -37.95732, 145.9146, -6.585366, 20.74118
1.639451, -0.0559082, 0.1296387, 1.232422, -44.93903, 123.3232, -9.939025, 20.74118
1.660674, 0.06225586, -0.04223633, 1.192383, -52.04268, 71.09756, -7.347561, 20.97647
1.670156, -0.02441406, -0.07714844, 1.437012, -46.85976, 27.40854, 3.536585, 20.69412
1.679566, -0.08447266, 0.06347656, 1.453369, -40.42683, -16.34146, 18.65854, 20.78824
1.689024, -0.1564941, -0.01342773, 1.231934, -45.06098, -50.5183, 15.18293, 20.74118
1.698445, -0.2912598, -0.1359863, 1.175537, -45.91464, -78.75, 4.847561, 20.74118
1.707838, -0.286377, -0.2026367, 1.189697, -41.09756, -98.93293, -0.7621951, 20.69412
1.717261, -0.2480469, -0.28125, 0.9460449, -25.09146, -102.9268, -7.713415, 20.83529
1.726663, -0.0949707, -0.1999512, 0.8427734, -9.45122, -85.51829, -4.72561, 20.83529
1.736118, 0.1804199, -0.1643066, 0.7636719, -3.292683, -43.56708, -15.15244, 20.78824
1.745517, 0.3735352, -0.15625, 0.5039063, -6.615854, 24.7561, -30.51829, 20.74118
1.766899, 0.4353027, -0.0234375, 0.3798828, -10.36585, 182.2256, -40.4878, 20.78824
1.776452, 0.2822266, -0.02905273, 0.5361328, -3.658537, 212.9573, -36.7378, 20.78824
1.785912, 0.08154297, -0.170166, 0.9018555, 11.03659, 187.9268, -27.7439, 20.74118
1.795308, -0.04125977, -0.1137695, 0.9389648, 18.87195, 134.7256, -23.65854, 20.78824
1.804708, -0.2546387, -0.1584473, 1.061523, 19.14634, 59.32927, -31.03659, 20.78824
1.814134, -0.3498535, -0.119873, 1.093018, 14.96951, -23.93293, -34.45122, 20.83529
1.823533, -0.359375, -0.04296875, 0.958252, 14.7561, -89.51221, -27.28659, 20.78824
1.832914, -0.2746582, 0.02709961, 0.784668, 16.09756, -123.6585, -19.87805, 20.74118
1.842313, -0.1660156, 0.004638672, 0.6486816, 17.7439, -127.1951, -13.17073, 20.74118
1.851738, -0.05541992, 0.005371094, 0.4685059, 19.87805, -104.878, -6.310976, 20.88235
1.873299, 0.1474609, -0.05786133, 0.3251953, 27.56098, -10.67073, -0.9756098, 20.78824
1.882936, 0.1694336, -0.01489258, 0.2775879, 28.41464, 26.64634, -0.2134146, 20.69412
1.892341, 0.1323242, 0.0144043, 0.2780762, 24.84756, 53.59756, 0.0304878, 20.78824
1.901646, 0.05859375, -0.003662109, 0.3647461, 17.46951, 68.0183, -3.567073, 20.74118
1.911026, -0.001464844, 0.09375, 0.4821777, 7.804878, 63.90244, -7.652439, 20.88235
1.920377, 0.03857422, 0.09301758, 0.5634766, -2.134146, 43.96342, -7.591464, 20.74118
1.929713, -0.01220703, -0.01513672, 0.6738281, -8.170732, 14.60366, -8.140244, 20.78824
1.939097, -0.09423828, -0.03759766, 0.8000488, -12.37805, -19.63415, -8.597561, 20.83529
1.948487, -0.1445313, 0.03540039, 0.7685547, -11.76829, -48.78049, -7.652439, 20.74118
1.957876, -0.1503906, -0.002441406, 0.736084, -4.908537, -65.82317, -5.731708, 20.69412
1.979654, -0.06835938, -0.1225586, 0.6398926, 16.09756, -55.06098, -3.445122, 20.83529
1.989202, -0.01782227, -0.107666, 0.6252441, 20.79268, -38.41464, -3.810976, 20.78824
1.998721, 0.01855469, -0.0871582, 0.5876465, 23.5061, -25.48781, -4.847561, 20.74118
2.008167, 0.04711914, -0.08691406, 0.5681152, 25.39634, -19.2378, -4.817073, 20.83529
2.017587, 0.04272461, -0.03540039, 0.545166, 28.53659, -16.55488, -4.054878, 20.69412
2.027013, 0.02294922, 0.01416016, 0.5844727, 31.4939, -14.93903, -0.8231708, 20.83529
2.036383, 0.01904297, 0.04736328, 0.652832, 30.82317, -11.06707, 2.865854, 20.78824
2.045699, 0.02734375, 0.08813477, 0.708252, 27.31707, -4.115854, 6.006098, 20.83529
2.05504, 0.03027344, 0.09716797, 0.7373047, 23.17073, 5.70122, 8.506098, 20.83529
2.06438, 0.03540039, 0.07788086, 0.7453613, 19.26829, 19.39024, 10.51829, 20.78824
2.086272, 0.02880859, 0.02563477, 0.8234863, 11.89024, 30.15244, 9.786586, 20.74118
2.09583, -0.01391602, 0.01538086, 0.8737793, 8.445122, 19.29878, 7.804878, 20.83529
2.105324, -0.02075195, -0.004150391, 0.8977051, 5.426829, 8.628049, 5.152439, 20.83529
2.114724, 0.008544922, -0.02978516, 0.8376465, 2.682927, 4.02439, 2.408537, 20.78824
2.124093, 0.03369141, -0.007080078, 0.7839355, 1.402439, 8.902439, 1.463415, 20.83529
2.133456, 0.04003906, 0.00390625, 0.7521973, 0.8841463, 23.38415, 2.012195, 20.83529
2.142768, 0.03833008, 0.01879883, 0.7282715, 1.097561, 44.72561, 3.628049, 20.78824
2.15206, 0.01879883, 0.02832031, 0.7160645, 1.341463, 75.94512, 6.341464, 20.83529
2.161418, 0.004394531, 0.04638672, 0.7287598, -0.1829268, 111.372, 8.170732, 20.74118
2.17077, 0.0, 0.05566406, 0.7478027, -3.689024, 144.1463, 9.02439, 20.78824
2.192812, -0.1096191, 0.01831055, 0.7785645, -15.12195, 201.7683, 3.628049, 20.83529
2.202495, -0.1206055, 0.02978516, 0.7355957, -18.01829, 224.7256, -0.3353659, 20.78824
2.212028, -0.159668, -0.01708984, 0.7512207, -19.54268, 241.8902, -4.237805, 20.74118
2.221458, -0.1818848, 0.003173828, 0.7727051, -19.42073, 248.2927, -5.457317, 20.88235
2.230842, -0.2910156, -0.01733398, 0.8439941, -18.5061, 232.2866, -5.518293, 20.74118
2.240195, -0.3916016, -0.01269531, 0.9243164, -13.75, 186.4939, -2.378049, 20.88235
2.249544, -0.4772949, -0.05249023, 0.9973145, -8.04878, 123.2012, 0.945122, 20.83529
2.258926, -0.5068359, -0.02246094, 1.016602, -2.743902, 59.69512, 4.390244, 20.88235
2.268279, -0.5100098, -0.01074219, 0.9006348, 1.341463, 16.92073, 7.560976, 20.92941
2.277601, -0.470459, 0.01538086, 0.7661133, 4.268293, 5.853659, 10.06098, 20.92941
2.299782, -0.262207, 0.02270508, 0.4455566, -3.109756, 107.1037, 7.408537, 20.83529
2.309367, -0.2634277, 0.03051758, 0.4248047, -8.658537, 171.5549, 4.664634, 20.83529
2.318869, -0.3041992, -0.004150391, 0.4472656, -13.20122, 225.4573, -0.0304878, 20.83529
2.32827, -0.338623, -0.0168457, 0.4511719, -16.09756, 267.5915, -0.6097561, 20.74118
2.337747, -0.3217773, 0.01806641, 0.4431152, -15.39634, 295.7927, 1.95122, 20.83529
2.34711, -0.4799805, -0.0324707, 0.447998, -14.35976, 314.7256, -1.859756, 20.74118
2.356492, -0.6064453, -0.08764648, 0.5170898, -13.14024, 317.8354, -10.67073, 20.88235
2.365882, -0.6645508, -0.08666992, 0.5930176, -12.43903, 297.8659, -18.75, 20.83529
2.375287, -0.7028809, -0.04980469, 0.642334, -11.46342, 263.4756, -19.57317, 20.78824
2.384666, -0.7434082, 0.01464844, 0.6430664, -9.237805, 225.0915, -11.92073, 20.83529
2.407078, -0.9616699, -0.01245117, 0.6647949, -9.573171, 141.7988, -1.25, 20.74118
2.416768, -1.002441, -0.005615234, 0.6652832, -11.03659, 108.689, 0.3963415, 20.78824
2.426315, -1.003174, -0.03808594, 0.6210938, -14.69512, 79.45122, -4.115854, 20.83529
2.435696, -0.876709, -0.01391602, 0.5073242, -17.19512, 63.23171, -6.280488, 20.88235
2.445093, -0.7648926, -0.01098633, 0.4301758, -17.07317, 57.86586, -5.823171, 20.83529
2.454491, -0.6662598, -0.02905273, 0.3278809, -13.68903, 67.92684, -3.231707, 20.83529
2.463877, -0.6208496, -0.05810547, 0.1706543, -9.542684, 96.46342, -2.804878, 20.78824
2.47332, -0.5947266, -0.05029297, 0.09765625, -5.487805, 132.9573, -0.8536586, 20.78824
2.48277, -0.5961914, -0.003173828, 0.03955078, -3.658537, 175.7012, 0.09146341, 20.83529
2.492127, -0.6960449, -0.06201172, 0.02807617, -3.932927, 219.4207, -6.52439, 20.97647
2.514707, -0.8066406, 0.02539063, 0.184082, -13.9939, 258.1098, -19.54268, 20.83529
2.524407, -0.9091797, 0.07397461, 0.3605957, -18.62805, 231.0061, -13.14024, 20.92941
2.533935, -1.107422, 0.06396484, 0.6142578, -22.22561, 159.0244, -7.439024, 20.83529
2.54339, -1.215088, 0.01293945, 0.9316406, -25.88415, 43.78049, -9.268292, 20.88235
2.552778, -1.289795, 0.006591797, 0.9162598, -29.7561, -78.71952, -11.46342, 20.88235
2.562171, -1.29834, -0.008056641, 0.6044922, -31.73781, -162.561, -10.15244, 20.74118
2.571565, -1.181885, -0.04736328, 0.2856445, -32.22561, -200.061, -8.628049, 20.88235
2.581024, -1.07959, -0.09521484, 0.09033203, -31.67683, -201.1281, -5.670732, 20.97647
2.590397, -0.9187012, -0.07910156, -0.03515625, -28.47561, -179.9085, -1.128049, 20.88235
2.599732, -0.7822266, -0.1364746, -0.01855469, -24.32927, -148.4146, -2.042683, 20.88235
2.622573, -0.6179199, -0.111084, 0.03149414, -16.7378, -79.42073, -3.780488, 20.83529
2.632266, -0.6503906, -0.114502, 0.1413574, -13.93293, -71.25, -4.02439, 20.92941
2.641798, -0.6896973, -0.123291, 0.3173828, -10.42683, -91.31098, -2.926829, 20.83529
2.651253, -0.7390137, -0.1152344, 0.5078125, -6.707317, -143.628, -1.646341, 20.88235
2.660664, -0.855957, -0.07836914, 0.8132324, -3.597561, -233.7195, 0.2134146, 20.83529
2.670088, -0.9577637, -0.1362305, 0.8823242, 1.402439, -347.1646, -0.6402439, 20.83529
2.679451, -1.133057, -0.1628418, 0.9667969, 9.054878, -457.7744, -13.65854, 20.78824
2.688959, -1.140381, -0.2507324, 1.066162, 22.68293, -550.0609, -32.95732, 20.83529
2.698434, -1.227295, -0.3039551, 0.8615723, 38.81098, -610.3963, -47.74391, 20.88235
2.707879, -1.25293, -0.2543945, 0.770752, 52.86586, -635.4573, -35.03049, 20.88235
2.73097, -0.888916, -0.1904297, 0.6330566, 29.5122, -539.939, 21.67683, 20.88235
2.740648, -1.030762, -0.1098633, -0.0703125, 20.82317, -419.1159, -1.920732, 20.83529
2.750138, -0.7407227, -0.09790039, -0.2861328, 21.67683, -301.9817, -11.52439, 20.88235
2.759513, 0.2868652, 0.2067871, -0.1633301, 24.11586, -219.7561, -1.829268, 20.83529
2.768918, 0.4658203, 0.1025391, 0.01000977, 22.68293, -162.2256, -5.304878, 20.78824
2.778292, 0.2358398, 0.02197266, 0.279541, 15.06098, -126.5854, -8.871951, 20.83529
2.787667, -0.03173828, 0.06054688, 0.614502, 0.3353659, -121.7378, -11.52439, 20.83529
2.79707, -0.1691895, 0.04101563, 0.9313965, -10.12195, -153.9329, -10.97561, 20.88235
2.806439, -0.2199707, 0.01245117, 1.130615, -10.36585, -205.0915, -11.92073, 20.83529
2.815846, -0.213623, -0.03466797, 1.145996, -10.33537, -253.1707, -16.40244, 20.78824
2.839077, 0.0378418, -0.06958008, 0.8615723, -17.86585, -294.1463, -20.0, 20.88235
2.848748, 0.201416, -0.05712891, 0.7993164, -27.07317, -269.6646, -15.42683, 20.92941
2.858312, 0.3210449, -0.08740234, 0.6865234, -31.40244, -238.4146, -11.43293, 20.88235
2.867719, 0.3186035, -0.08251953, 0.6237793, -30.2439, -207.6524, -9.390244, 20.88235
2.877141, 0.34375, -0.1293945, 0.536377, -18.65854, -177.6219, -8.262196, 20.83529
2.886559, 0.3146973, -0.03686523, 0.2929688, 1.036585, -144.4817, -7.22561, 20.88235
2.895936, 0.357666, 0.1245117, 0.3439941, 12.56098, -107.6829, -2.195122, 20.83529
2.905297, 0.357666, 0.1569824, 0.4941406, 18.5061, -89.05488, 2.713415, 20.88235
2.914643, 0.3139648, 0.07275391, 0.6733398, 22.98781, -90.70123, 6.615854, 20.92941
2.924012, 0.3583984, -0.01269531, 0.7287598, 28.62805, -106.2805, 7.713415, 20.88235
2.947373, 0.484375, 0.02075195, 0.8193359, 45.97561, -131.8598, 10.60976, 20.92941
2.957054, 0.4924316, -0.02441406, 0.8706055, 38.62805, -138.689, 6.097561, 20.83529
2.966567, 0.5634766, -0.04345703, 0.9355469, 26.70732, -140.7927, 1.615854, 20.83529
2.975941, 0.6535645, -0.1206055, 0.8105469, 13.04878, -130.6707, -3.323171, 20.88235
2.985335, 0.6262207, -0.09960938, 0.6381836, 3.871951, -112.0122, -5.518293, 20.83529
2.994738, 0.6540527, -0.06323242, 0.6203613, -3.353659, -100.3354, -5.121951, 20.92941
3.004143, 0.5437012, -0.02172852, 0.6323242, -7.560976, -98.78049, -2.408537, 20.88235
3.013528, 0.5620117, 0.0004882813, 0.5803223, -7.256098, -91.0061, -0.06097561, 20.83529
3.022929, 0.5808105, -0.0078125, 0.4992676, -3.04878, -65.70122, 3.384146, 20.83529
3.03235, 0.5895996, 0.03442383, 0.5812988, 3.841464, -42.19512, 3.871951, 20.88235
3.05592, 0.6933594, -0.01147461, 0.6137695, 6.219512, -17.95732, 3.506098, 20.83529
3.065618, 0.6865234, -0.01074219, 0.7131348, 1.798781, -25.36586, 3.414634, 20.92941
3.075131, 0.7102051, -0.002685547, 0.7834473, -0.2134146, -40.21342, 0.7317073, 20.92941
3.08459, 0.6459961, -0.04394531, 0.8520508, -0.6097561, -55.24391, 0.6097561, 20.88235
3.094001, 0.7341309, 0.04711914, 0.8442383, -4.603659, -59.63415, 3.170732, 20.83529
3.103424, 0.7436523, 0.03369141, 0.6955566, -5.27439, -53.41464, 0.9146341, 20.92941
3.112791, 0.6833496, -0.04516602, 0.6240234, -2.591464, -43.44512, -1.25, 20.88235
3.122243, 0.5795898, -0.0703125, 0.5900879, -0.0304878, -35.7622, -2.957317, 20.88235
3.131633, 0.6113281, -0.02514648, 0.5959473, 0.6097561, -28.01829, -4.634146, 20.92941
3.140981, 0.5996094, -0.01196289, 0.5966797, -0.6097561, -13.04878, -2.073171, 20.74118
3.164698, 0.692627, 0.01367188, 0.6203613, -3.628049, 36.09756, 5.27439, 20.92941
3.174409, 0.675293, -0.05859375, 0.5178223, -0.8536586, 51.28049, 5.091464, 20.88235
3.183898, 0.6025391, -0.09619141, 0.4628906, 0.06097561, 55.64024, 2.652439, 20.92941
3.193283, 0.5664063, -0.06762695, 0.5012207, -3.719512, 52.16464, -1.554878, 20.92941
3.202699, 0.543457, -0.1101074, 0.5336914, -6.25, 51.28049, -5.396342, 20.88235
3.212073, 0.5742188, -0.1386719, 0.5803223, -4.02439, 55.4878, -9.542684, 20.83529
3.221443, 0.5732422, -0.1147461, 0.6206055, -0.4573171, 61.40244, -13.20122, 20.88235
3.230848, 0.5722656, -0.08374023, 0.6625977, 1.067073, 63.75, -16.21951, 20.88235
3.240149, 0.5981445, -0.03808594, 0.6689453, 2.530488, 66.85976, -15.91463, 20.83529
3.249486, 0.6660156, 0.01977539, 0.6210938, 4.695122, 84.48172, -12.77439, 20.88235
3.273352, 0.689209, -0.01171875, 0.5595703, 4.72561, 206.9512, -7.713415, 20.78824
3.283038, 0.651123, 0.01904297, 0.5070801, 3.628049, 259.7866, 2.164634, 20.97647
3.292506, 0.5246582, 0.06835938, 0.4638672, -0.8231708, 300.061, 7.926829, 20.92941
3.301909, 0.5541992, 0.1950684, 0.5783691, -9.237805, 323.2012, 11.28049, 20.88235
3.31131, 0.4768066, 0.1462402, 0.6157227, -17.62195, 325.7927, 9.207317, 20.92941
3.320627, 0.4162598, 0.05688477, 0.6101074, -24.08537, 324.6341, 4.573171, 20.88235
3.329979, 0.3012695, -0.01416016, 0.4963379, -30.64025, 337.8354, -1.128049, 20.92941
3.33934, 0.1970215, -0.05981445, 0.5136719, -38.41464, 360.1219, -6.829268, 20.88235
3.34872, -0.04125977, -0.05200195, 0.755127, -43.10976, 352.0732, -7.591464, 20.83529
3.358123, -0.1088867, -0.006347656, 0.6396484, -36.21951, 354.3598, -4.085366, 20.78824
3.382203, -0.2937012, 0.0168457, 0.9799805, -17.9878, 310.1524, 10.60976, 20.88235
3.391916, -0.3945313, -0.104248, 1.290039, -2.926829, 228.6585, 14.90854, 20.88235
3.401434, -0.3498535, -0.03930664, 1.499023, 15.39634, 126.2805, 23.2622, 20.83529
3.410826, -0.3615723, -0.1540527, 1.550537, 31.95122, 7.408537, 24.54268, 20.88235
3.420176, -0.3286133, -0.07861328, 1.4729, 35.45732, -100.6707, 19.14634, 20.92941
3.429538, -0.3076172, 0.009033203, 1.166748, 29.35976, -163.9024, 12.65244, 20.97647
3.438892, -0.2133789, 0.1533203, 0.7390137, 20.30488, -203.872, 14.26829, 20.83529
3.448248, -0.159668, 0.1628418, 0.5817871, 13.17073, -207.9878, 17.62195, 20.78824
3.457621, -0.003417969, 0.03808594, 0.3796387, 8.536586, -182.7134, 20.54878, 20.92941
3.466976, 0.08862305, -0.1203613, 0.4440918, 2.865854, -138.4756, 18.9939, 20.88235
3.491201, 0.09326172, -0.4997559, 0.4663086, -8.963415, -11.95122, -10.88415, 20.92941
3.500965, 0.06323242, -0.3205566, 0.5146484, -13.56707, 24.05488, -0.2439024, 20.92941
3.510465, 0.2180176, 0.1381836, 0.7102051, -21.79878, 35.73171, 3.567073, 20.92941
3.519897, 0.2158203, 0.4182129, 0.659668, -34.63415, 41.98171, 10.51829, 20.88235
3.529279, 0.1225586, 0.2485352, 0.6384277, -44.20732, 49.14634, 20.91464, 20.92941
3.538706, -0.0480957, 0.2910156, 0.6022949, -44.5122, 56.92073, 30.30488, 20.88235
3.548038, -0.03955078, 0.04833984, 0.4763184, -41.12805, 69.05488, 35.97561, 20.92941
3.557389, 0.007568359, -0.1264648, 0.6914063, -31.34146, 69.11585, 39.60366, 20.88235
3.566731, 0.02539063, -0.2314453, 0.642334, -16.61585, 62.10366, 41.79878, 20.97647
3.576048, -0.05786133, -0.1533203, 0.7724609, -5.914634, 41.64634, 38.84146, 20.92941
3.60043, -0.1843262, -0.1811523, 0.8916016, -4.207317, -112.7439, 5.731708, 20.83529
3.610182, -0.01245117, 0.0378418, 0.5334473, -10.60976, -118.9329, 5.0, 20.88235
3.619682, 0.1291504, 0.1328125, 0.418457, -18.62805, -94.57317, 1.097561, 20.92941
3.629029, 0.1411133, 0.02661133, 0.6137695, -22.16464, -58.44512, -3.841464, 20.88235
3.638426, 0.0949707, -0.1540527, 0.7502441, -17.10366, -25.18293, -8.841464, 20.83529
3.64787, 0.121582, -0.3320313, 0.935791, -3.567073, 6.097561, -8.414635, 20.83529
3.657314, 0.05175781, -0.2634277, 0.9440918, 8.780488, 36.18903, -8.018292, 20.88235
3.666685, -0.02075195, -0.1555176, 0.9724121, 19.39024, 53.68903, -7.743903, 21.02353
3.675994, 0.05541992, -0.0871582, 0.8989258, 33.90244, 62.71342, -6.554878, 20.88235
3.685344, 0.001464844, -0.03173828, 0.8654785, 40.15244, 64.87805, -5.121951, 20.92941
3.709914, -0.04638672, 0.06030273, 0.7871094, 23.81098, 34.5122, -1.432927, 20.88235
3.719641, -0.1137695, 0.06347656, 0.9020996, 13.47561, 10.60976, -6.585366, 20.97647
3.729166, -0.08105469, 0.1171875, 0.956543, -2.073171, -17.71342, -14.84756, 20.78824
3.738547, -0.08496094, 0.1352539, 0.9052734, -19.17683, -45.06098, -21.58537, 20.92941
3.748002, -0.09716797, 0.1169434, 0.7949219, -32.46951, -61.82927, -26.15854, 20.97647
3.757387, -0.06103516, 0.02734375, 0.7658691, -36.98171, -69.11585, -27.37805, 20.92941
3.766757, -0.03320313, -0.1191406, 0.8027344, -30.70122, -75.09147, -27.77439, 20.83529
3.776144, -0.03759766, -0.2185059, 0.8376465, -16.12805, -75.70122, -24.72561, 20.88235
3.785541, -0.01147461, -0.2226563, 0.7827148, 0.6707317, -65.82317, -20.30488, 20.92941
3.794921, 0.03393555, -0.1936035, 0.7070313, 11.76829, -45.94512, -18.9939, 20.88235
3.819652, 0.1147461, 0.008789063, 0.7814941, 11.67683, 0.8231708, -12.77439, 20.97647
3.829354, 0.09863281, -0.046875, 0.845459, 15.27439, 16.4939, -10.88415, 20.92941
3.838928, 0.06445313, -0.04418945, 0.7373047, 17.19512, 32.71342, -10.27439, 20.97647
3.848298, 0.114502, -0.1044922, 0.6831055, 12.04268, 52.53049, -10.2439, 20.88235
3.857739, -0.006835938, -0.1315918, 0.729248, -1.615854, 46.0061, -13.84146, 20.92941
3.867045, -0.02539063, 0.004638672, 0.769043, -18.59756, 18.29268, -7.682927, 20.88235
3.876406, -0.05810547, -0.01953125, 0.7119141, -32.13415, -10.21342, -1.036585, 20.92941
3.885842, -0.03076172, -0.06347656, 0.6906738, -42.46952, -38.14024, 2.77439, 20.88235
3.895234, -0.007568359, -0.03417969, 0.6416016, -47.74391, -58.04878, 9.695122, 20.83529
3.904599, -0.02905273, -0.08691406, 0.6728516, -47.71342, -73.20122, 14.57317, 20.92941
3.929584, 0.1403809, -0.1230469, 0.8007813, -31.79878, -95.03049, 13.81098, 20.88235
3.939225, 0.2055664, -0.177002, 1.061768, 1.95122, -73.84147, 12.43903, 20.88235
3.948678, 0.2451172, -0.2033691, 1.018066, 20.30488, -54.90854, 14.5122, 20.92941
3.958075, 0.2265625, -0.2446289, 1.083008, 33.78049, -24.72561, 13.01829, 20.83529
3.967484, 0.2363281, -0.1911621, 1.18335, 35.27439, -4.237805, 9.695122, 20.88235
3.976905, 0.1789551, -0.1286621, 1.241943, 34.78659, 16.25, 6.737805, 20.92941
3.986248, 0.2099609, -0.1938477, 1.059082, 40.4878, 76.70732, 2.865854, 20.92941
3.995562, 0.1323242, -0.1337891, 1.494385, 43.93293, 68.65854, 1.432927, 20.88235
4.004897, 0.08276367, -0.1179199, 1.434814, 41.15854, 52.56098, 3.536585, 20.92941
4.014227, -0.06884766, -0.2145996, 1.519531, 41.46342, 24.39024, 6.646342, 20.97647
4.039298, -0.1130371, -0.01708984, 1.447021, 36.46342, -3.902439, 11.0061, 20.88235
4.049068, -0.1428223, -0.01855469, 1.542725, 30.2439, -1.310976, 10.12195, 20.97647
4.058542, -0.1860352, -0.07910156, 1.801025, 22.46951, -10.0, 7.957317, 20.88235
4.067982, -0.2248535, -0.07226563, 1.858154, 12.71342, -8.871951, 6.402439, 20.83529
4.077351, -0.1955566, -0.07104492, 1.86499, 0.304878, 5.518293, 5.426829, 20.88235
4.086745, -0.2233887, -0.06054688, 1.945557, -13.14024, 20.54878, 5.0, 20.92941
4.096102, -0.2539063, -0.02734375, 2.022217, -25.85366, 30.64025, 7.5, 20.88235
4.105501, -0.2792969, -0.01733398, 2.077148, -35.2439, 33.9939, 13.62805, 20.92941
4.114878, -0.2910156, -0.06640625, 2.161865, -39.39024, 31.55488, 20.88415, 20.97647
4.124242, -0.3078613, -0.1914063, 2.230957, -35.2439, 32.83537, 30.18293, 20.83529
4.149458, -0.2961426, -0.2724609, 2.441162, -3.018293, 27.53049, 42.37805, 20.88235
4.159187, -0.3120117, -0.1789551, 2.674805, 20.85366, 17.7439, 34.66464, 20.92941
4.168611, -0.3334961, -0.2700195, 2.920898, 60.06098, 11.58537, 23.10976, 20.83529
4.178025, 0.008789063, -0.2661133, 2.797852, 106.8902, 55.82317, 9.72561, 20.88235
4.187416, 0.239502, -0.09448242, 2.927246, 136.9817, 126.5549, -3.932927, 20.92941
4.196739, 0.4626465, 0.09130859, 2.816162, 147.0732, 199.1768, -17.77439, 21.02353
4.206084, 0.4562988, 0.3674316, 2.816895, 131.189, 244.4512, -9.817074, 20.88235
4.215452, 0.6186523, 0.6306152, 2.594727, 76.98171, 265.6707, 7.164634, 20.92941
4.224783, 0.3605957, 0.5200195, 2.013672, 34.78659, 257.1951, 20.97561, 20.97647
4.234129, 0.07104492, 0.6381836, 2.127441, -55.5183, 193.3232, 23.5061, 20.92941
4.259546, 0.1940918, 0.1330566, -0.0769043, -326.7683, 128.4451, 27.77439, 20.83529
4.269305, 0.09326172, 0.01245117, -0.5007324, -314.1464, 122.3781, 31.34146, 20.88235
4.278786, 0.06005859, 0.03027344, -0.4284668, -296.1585, 111.189, 33.87195, 20.92941
4.288166, 0.05883789, 0.01831055, -0.4211426, -280.1524, 102.8963, 35.57927, 20.88235
4.297506, 0.06738281, 0.0007324219, -0.4128418, -264.6342, 97.62196, 37.04268, 20.92941
4.30688, 0.07128906, 0.01098633, -0.3964844, -250.9756, 94.60366, 38.81098, 20.92941
4.31626, 0.06567383, 0.01147461, -0.3725586, -240.2744, 92.16464, 40.21342, 20.97647
4.325597, 0.06152344, 0.01000977, -0.3276367, -230.061, 88.87196, 41.49391, 20.83529
4.334944, 0.05249023, 0.01269531, -0.2893066, -220.4268, 84.51221, 42.62195, 20.78824
4.344312, 0.05004883, 0.003173828, -0.2836914, -211.189, 80.36586, 43.75, 20.92941
4.369921, 0.04125977, 0.001953125, -0.2246094, -191.25, 68.35366, 45.88415, 20.83529
4.379643, 0.046875, -0.0002441406, -0.2219238, -185.6402, 64.05488, 46.21952, 20.92941
4.389124, 0.04467773, -0.001953125, -0.2053223, -180.8842, 60.06098, 46.52439, 20.83529
4.398585, 0.04248047, 0.0009765625, -0.2026367, -177.1951, 56.28049, 46.7683, 20.88235
4.407992, 0.03710938, 0.002685547, -0.2009277, -173.9634, 52.10366, 47.31708, 20.92941
4.41738, 0.03540039, 0.001708984, -0.1848145, -170.3354, 47.07317, 47.59147, 20.88235
4.426718, 0.04150391, 0.0009765625, -0.182373, -166.9207, 42.28659, 47.83536, 20.92941
4.436099, 0.0324707, -0.003662109, -0.1877441, -164.1159, 37.92683, 47.92683, 20.88235
4.445455, 0.03442383, 0.006591797, -0.1860352, -161.4634, 33.41464, 47.9878, 20.88235
4.45487, 0.03027344, -0.0007324219, -0.1853027, -158.4756, 28.78049, 48.23171, 20.92941
4.480681, 0.03344727, -0.0007324219, -0.2019043, -148.3842, 20.15244, 48.84147, 20.83529
4.490513, 0.03344727, -0.006835938, -0.197998, -144.4207, 17.62195, 49.02439, 20.83529
4.500025, 0.03271484, 0.001220703, -0.1977539, -139.7866, 15.21342, 49.2683, 20.92941
4.509436, 0.04101563, -0.01416016, -0.192627, -135.061, 12.95732, 49.5122, 20.78824
4.518812, 0.04418945, -0.007080078, -0.2019043, -129.3598, 10.7622, 49.69512, 20.83529
4.528231, 0.03564453, -0.01391602, -0.2023926, -122.9878, 9.085366, 50.12195, 20.88235
4.537607, 0.03637695, -0.01293945, -0.2043457, -116.7073, 8.292683, 50.30488, 20.92941
4.547008, 0.03564453, -0.01293945, -0.1940918, -110.1524, 7.286585, 50.88415, 20.92941
4.556396, 0.03295898, -0.0222168, -0.1916504, -103.7195, 5.54878, 51.09756, 20.97647
4.565802, 0.02783203, -0.01269531, -0.1694336, -96.85976, 2.926829, 51.37195, 20.92941
4.591756, 0.02709961, -0.01660156, -0.1501465, -76.55488, -8.780488, 52.65244, 20.88235
4.60161, 0.02294922, -0.01635742, -0.1503906, -68.53659, -13.23171, 53.04878, 20.83529
4.611147, 0.02539063, -0.02001953, -0.1335449, -61.43293, -18.23171, 53.23171, 20.92941
4.620578, 0.02587891, -0.01928711, -0.1240234, -55.30488, -22.16464, 53.47561, 20.83529
4.629959, 0.02563477, -0.02075195, -0.1252441, -49.57317, -26.92073, 53.44512, 20.92941
4.63932, 0.02392578, -0.01611328, -0.1213379, -44.2378, -31.64634, 53.65854, 20.78824
4.6487, 0.01904297, -0.01904297, -0.1113281, -38.90244, -36.7683, 53.81098, 20.92941
4.658045, 0.015625, -0.02026367, -0.0847168, -34.2378, -42.95732, 53.93293, 20.92941
4.6674, 0.01782227, -0.01318359, -0.06860352, -30.30488, -49.66464, 54.29878, 20.92941
4.676784, 0.0222168, -0.01513672, -0.05981445, -26.4939, -56.18903, 54.42073, 20.97647
4.70294, 0.01025391, -0.02001953, -0.04321289, -17.31707, -74.87805, 54.05488, 20.78824
4.712733, 0.008544922, -0.02514648, -0.03735352, -13.9939, -81.4939, 54.35976, 20.92941
4.72225, 0.01245117, -0.02539063, -0.04833984, -9.908537, -88.20123, 54.2378, 20.97647
4.73168, 0.004150391, -0.02124023, -0.0378418, -6.067073, -94.57317, 54.2683, 20.92941
4.741061, 0.0009765625, -0.02416992, -0.04418945, -2.469512, -101.4939, 54.2683, 20.92941
4.750453, -0.00390625, -0.02539063, -0.02490234, 1.341463, -108.2927, 54.2378, 20.92941
4.759789, -0.003417969, -0.02612305, -0.02319336, 5.640244, -115.2744, 54.42073, 20.88235
4.76917, 0.0002441406, -0.0222168, -0.01245117, 10.39634, -123.2622, 54.63415, 20.92941
4.778523, -0.006835938, -0.02587891, -0.01123047, 15.88415, -131.0061, 54.54268, 20.83529
4.78794, -0.006347656, -0.02905273, 0.005859375, 21.34146, -138.7805, 55.09147, 20.88235
4.814229, -0.01269531, -0.02636719, 0.0378418, 35.91464, -160.1219, 55.73171, 20.92941
4.824197, -0.01733398, -0.03149414, 0.04589844, 40.73171, -166.7683, 56.15854, 20.92941
4.833705, -0.01806641, -0.02758789, 0.05932617, 46.21952, -173.5061, 56.67683, 20.92941
4.843128, -0.02050781, -0.03076172, 0.07910156, 51.43293, -180.8232, 56.98171, 20.88235
4.85255, -0.01708984, -0.0378418, 0.1052246, 56.82927, -189.1463, 57.56098, 20.83529
4.861925, -0.02294922, -0.0300293, 0.1154785, 60.85366, -197.9878, 57.65244, 20.78824
4.87131, -0.03320313, -0.02856445, 0.1210938, 64.54269, -206.0366, 58.10976, 20.83529
4.88067, -0.0378418, -0.02832031, 0.1474609, 67.13415, -216.2805, 58.65854, 20.97647
4.890044, -0.1081543, -0.9477539, 0.8632813, 328.0793, -540.1829, 45.70122, 20.92941
4.899379, -1.024414, 0.05786133, 0.1352539, 589.2683, -670.9756, 92.62196, 20.83529
4.925882, -1.501709, -1.452148, 4.786621, 98.81098, -21.28049, 67.07317, 20.88235
4.935797, -1.035889, -0.6381836, 3.145996, 46.18903, -130.1219, 86.40244, 20.92941
4.945307, -1.091064, -0.8144531, 3.046631, 33.32317, -272.8049, 70.67073, 20.88235
4.954749, -1.357178, -0.7995605, 1.996338, 6.006098, -352.7439, 35.2439, 20.88235
4.964149, -1.059814, -0.6728516, 1.315918, -28.23171, -363.9329, 11.73781, 20.83529
4.973594, -0.4401855, -0.1896973, 0.6044922, -98.5366, -321.189, 5.152439, 20.88235
4.982978, -0.2902832, -0.1640625, 1.041504, -169.9085, -317.5305, -6.128049, 20.78824
4.992374, -0.4042969, -0.170166, 1.438232, -195.7012, -377.8049, -20.18293, 20.92941
5.001732, -0.3686523, -0.09936523, 1.86377, -181.7378, -359.1159, -30.91464, 20.97647
5.01113, -0.2089844, -0.3103027, -3.44751, 484.5427, -279.1159, 28.14025, 20.92941
5.037766, 0.5905762, -0.5898438, 3.82959, -143.3537, 39.81707, -60.0, 20.88235
5.047647, 0.1647949, -0.05126953, 6.360352, -195.3049, -181.2195, -79.08536, 20.88235
5.057123, 0.2739258, -0.2819824, 5.279053, -230.122, -299.0244, -44.35976, 20.92941
5.066564, 0.3295898, -0.6577148, -3.976318, 132.439, 50.64024, 29.5122, 20.92941
5.07593, -0.7744141, -1.038086, 0.4482422, 147.1342, 76.98171, -15.97561, 20.88235
5.085299, -0.09985352, -1.082764, 1.191406, 140.8537, 105.0, -48.10976, 20.92941
5.094691, -0.3442383, -0.9597168, 1.180908, 140.3354, 91.15854, -83.32317, 20.97647
5.104081, -0.2766113, -0.371582, 0.5717773, 154.6646, 91.52439, -91.0366, 20.83529
5.113468, -0.1882324, -0.1291504, 0.1682129, 158.6585, 112.8659, -95.39635, 20.88235
5.122816, -0.123291, 0.1604004, 0.123291, 144.6951, 119.2683, -95.85366, 20.92941
5.149553, -0.4406738, 0.2766113, 1.474854, -94.32927, -62.59147, -115.5488, 20.83529
5.159416, -0.3066406, 0.4516602, 1.516357, -187.3476, -115.6402, -113.6281, 20.97647
5.168992, -0.1452637, 0.5632324, 1.265137, -249.0854, -134.0244, -105.2134, 20.83529
5.178409, 0.06860352, 0.3713379, 0.8134766, -257.3476, -109.0244, -83.90244, 20.92941
5.187824, 0.2597656, 0.300293, 0.503418, -210.061, -52.65244, -37.92683, 20.78824
5.197269, 0.5292969, -0.1804199, -0.2692871, -98.20123, 56.82927, 1.981707, 20.88235
5.206672, 0.3503418, -0.4284668, -0.1433105, 20.85366, 157.2561, 22.7439, 20.88235
5.216003, 0.08447266, -0.6669922, 0.7275391, 119.1159, 184.4817, 25.67073, 20.92941
5.225362, -0.3505859, -0.8269043, 1.667725, 172.7134, 130.7927, 6.25, 20.83529
5.234748, -0.4108887, -0.7961426, 1.239014, 195.7927, 91.61586, -15.73171, 20.97647
5.261743, -0.1386719, -0.1083984, 0.8283691, 181.2195, -29.42073, -32.22561, 20.97647
5.271699, 0.01586914, 0.08691406, 0.651123, 156.0366, -34.42074, -29.29878, 20.88235
5.281192, 0.1203613, 0.1696777, 0.6101074, 132.3781, -40.91464, -23.68903, 20.88235
5.290592, 0.1679688, 0.1623535, 0.5837402, 105.0305, -42.56098, -26.21951, 20.92941
5.299958, 0.2226563, 0.1569824, 0.6330566, 73.32317, -42.62195, -31.73781, 20.83529
5.309307, 0.2585449, 0.0949707, 0.7419434, 33.32317, -49.14634, -42.53049, 20.83529
5.318715, 0.3251953, 0.1813965, 0.8164063, -5.213415, -57.19512, -52.0122, 20.97647
5.328044, 0.4360352, 0.1782227, 0.7177734, -34.93903, -54.2683, -62.5, 20.97647
5.337363, 0.4655762, 0.08007813, 0.5866699, -53.93293, -34.54268, -76.7683, 20.92941
5.346757, 0.5341797, -0.003417969, 0.3884277, -54.7561, 1.676829, -88.44512, 20.78824
5.37387, 0.1962891, -0.4833984, 0.5581055, -0.6402439, 116.1281, -127.3171, 20.83529
5.383745, -0.06054688, -0.315918, 0.7980957, 25.54878, 121.128, -135.3659, 20.88235
5.393291, -0.2036133, -0.1474609, 0.9794922, 44.54268, 111.4939, -131.7378, 20.88235
5.402723, -0.2995605, 0.06225586, 1.595947, 64.17684, 64.96952, -114.7561, 20.83529
5.412105, -0.4760742, 0.1728516, 1.841797, 80.15244, 20.7622, -97.56098, 20.88235
5.421455, -0.5214844, 0.1599121, 1.365723, 67.07317, -12.0122, -92.59147, 20.92941
5.430848, -0.3068848, 0.2941895, 1.319336, 45.0, -45.70122, -78.44512, 20.83529
5.440146, -0.1704102, 0.3225098, 1.120361, 27.53049, -71.21952, -64.81708, 20.88235
5.449459, -0.02978516, 0.1870117, 0.8154297, 14.5122, -75.03049, -58.17073, 20.83529
5.458826, 0.1335449, 0.1047363, 0.6230469, 1.585366, -65.12196, -59.39024, 20.83529
5.486107, 0.3164063, -0.04199219, 0.3422852, -25.18293, -0.6707317, -91.82927, 20.92941
5.496122, 0.2629395, -0.09643555, 0.3222656, -30.48781, 28.2622, -105.5488, 20.83529
5.50559, 0.1162109, -0.1870117, 0.2443848, -35.60976, 62.40854, -118.9024, 20.92941
5.515239, 0.02514648, -0.06933594, 0.3120117, -36.21951, 89.35976, -123.75, 20.92941
5.524592, -0.05249023, -0.05737305, 0.3530273, -33.84146, 109.1159, -122.3171, 20.97647
5.534158, -0.08740234, -0.03540039, 0.3879395, -30.06098, 123.8415, -113.3232, 20.92941
5.543567, -0.1875, -0.3195801, 1.216553, -7.987805, 94.08537, -93.62805, 20.92941
5.552973, -0.2832031, -0.1313477, 1.216309, 25.85366, 79.32927, -83.29268, 20.88235
5.562318, -0.2248535, 0.2348633, 1.049561, 25.85366, 68.75, -77.46952, 20.88235
5.571632, -0.1743164, 0.1831055, 1.101807, 11.0061, 51.67683, -66.40244, 20.92941
5.599312, 0.04296875, 0.007080078, 0.9421387, -37.83537, -9.481708, -55.70122, 20.74118
5.609246, 0.0456543, -0.1533203, 0.8969727, -47.74391, -23.78049, -64.60366, 20.83529
5.618687, 0.03173828, -0.2043457, 0.8764648, -52.46952, -38.96342, -75.15244, 21.02353
5.628198, 0.01293945, -0.1989746, 0.7958984, -51.92073, -48.41464, -81.12805, 20.83529
5.637632, -0.0625, -0.1552734, 0.6862793, -48.65854, -49.08536, -80.39635, 20.78824
5.647037, -0.1315918, -0.2089844, 0.5378418, -55.42683, -37.46951, -78.96342, 20.83529
5.65646, -0.173584, -0.05175781, 0.4694824, -49.87805, -30.21342, -69.39024, 20.83529
5.665865, -0.1408691, -0.09423828, 0.6928711, -32.59146, -27.77439, -62.2561, 20.88235
5.675294, -0.04272461, -0.06665039, 0.7243652, -17.53049, -19.2378, -53.07927, 20.92941
5.684684, 0.1027832, 0.01586914, 0.6655273, -4.054878, -3.810976, -40.97561, 20.92941
5.71256, 0.1530762, 0.1416016, 0.6604004, 23.10976, 57.19512, -20.03049, 20.88235
5.722451, 0.1315918, 0.0715332, 0.6359863, 22.56098, 76.12805, -15.94512, 20.83529
5.731875, 0.07202148, 0.03613281, 0.6123047, 19.69512, 93.32317, -14.11585, 20.83529
5.74132, -0.008056641, -0.01049805, 0.6728516, 17.16463, 99.23781, -18.10976, 20.88235
5.750743, -0.07641602, -0.01220703, 0.7592773, 16.12805, 95.21342, -24.23781, 20.92941
5.760104, -0.1560059, -0.08203125, 0.7729492, 14.39024, 85.30488, -29.02439, 20.88235
5.769456, -0.2924805, -0.201416, 0.8554688, 12.95732, 63.90244, -35.67074, 20.88235
5.778903, -0.3156738, -0.236084, 0.8876953, 10.0, 33.20122, -38.53659, 20.83529
5.788241, -0.2617188, -0.2507324, 0.8881836, 7.713415, -1.676829, -37.28659, 20.97647
5.797663, -0.2155762, -0.2348633, 0.8808594, 7.408537, -38.90244, -33.87195, 20.92941
5.825671, -0.0456543, 0.08032227, 1.07666, -21.89024, -92.68293, -14.69512, 20.88235
5.835594, 0.03173828, 0.1442871, 0.9360352, -29.29878, -84.7866, -7.286585, 20.97647
5.845077, -0.005615234, 0.1193848, 0.8557129, -30.91464, -63.23171, -4.085366, 20.92941
5.85453, -0.07226563, 0.1210938, 0.7182617, -27.13415, -26.67683, -14.11585, 20.92941
5.86392, -0.1491699, 0.1262207, 0.5439453, -13.87195, 19.05488, -23.78049, 20.97647
5.87331, -0.1115723, 0.07446289, 0.4406738, 6.067073, 63.75, -27.83537, 20.92941
5.882663, 0.1188965, -0.03271484, -0.01586914, 46.25, 107.7134, -26.82927, 20.97647
5.892016, 0.1037598, -0.1162109, 0.07836914, 81.12805, 157.7134, -30.30488, 20.97647
5.901349, -0.08105469, -0.08959961, 0.4504395, 79.81708, 167.7439, -32.34756, 20.78824
5.910775, -0.1333008, -0.2089844, 0.6496582, 84.45123, 183.9329, -42.22561, 20.92941
5.938924, -0.4423828, -0.07885742, 1.219238, 35.09146, 71.70732, -71.61585, 20.92941
5.948864, -0.5168457, 0.002441406, 1.289795, 10.0, 13.38415, -88.10976, 20.92941
5.958363, -0.5009766, 0.04296875, 1.276123, -17.2561, -47.80488, -93.68903, 20.92941
5.967866, -0.659668, 0.09887695, 1.20166, -40.15244, -91.58537, -102.3476, 20.88235
5.977263, -0.5317383, 0.1831055, 1.124023, -57.28659, -127.6524, -90.15244, 20.78824
5.986708, -0.4924316, 0.2106934, 1.010254, -74.54269, -145.1219, -75.09147, 20.83529
5.996056, -0.4458008, 0.1210938, 0.8010254, -76.34147, -131.9207, -72.65244, 20.97647
6.005468, -0.3972168, 0.05834961, 0.4123535, -60.0, -101.4634, -82.71342, 20.97647
6.014878, -0.1525879, 0.0222168, 0.4782715, -47.65244, -64.08536, -79.63415, 20.92941
6.024331, 0.04101563, -0.02880859, 0.5280762, -34.17683, -28.07927, -78.20122, 20.97647
6.052697, -0.07373047, -0.05957031, 0.7275391, 4.664634, 48.35366, -66.25, 20.88235
6.062655, -0.144043, -0.05932617, 0.9560547, 17.80488, 26.09756, -57.28659, 20.78824
6.072141, -0.2634277, 0.05981445, 1.062988, 14.90854, -12.37805, -43.65854, 20.88235
6.081615, -0.487793, 0.04516602, 1.07959, 18.53659, -40.85366, -31.31098, 20.83529
6.09102, -0.3342285, 0.05273438, 0.9567871, 23.29268, -63.5061, -20.54878, 20.92941
6.100477, -0.1772461, 0.07421875, 0.8161621, 25.51829, -64.17684, -16.70732, 20.97647
6.109818, -0.1105957, 0.1296387, 0.8701172, 20.45732, -53.47561, -12.59146, 20.92941
6.119195, 0.00390625, 0.09399414, 0.947998, 9.359756, -46.61586, -8.780488, 20.83529
6.128545, -0.05883789, 0.04833984, 0.9558105, -3.231707, -44.63415, -7.439024, 20.92941
6.137931, -0.1604004, 0.03857422, 0.8720703, -9.512196, -39.60366, -7.103659, 20.97647
6.166505, -0.114502, -0.2363281, 0.6132813, 14.90854, -10.39634, -8.292683, 20.92941
6.176455, -0.02661133, -0.3649902, 0.6833496, 25.2439, 1.006098, -16.18902, 20.92941
6.18593, -0.06445313, -0.4389648, 0.5847168, 36.79878, 16.89024, -26.06707, 20.83529
6.195344, 0.009521484, -0.3349609, 0.7805176, 46.61586, 23.41464, -31.76829, 20.88235
6.204728, -0.05517578, -0.2248535, 0.8664551, 50.21342, 15.42683, -33.38415, 20.83529
6.214099, -0.02685547, -0.08789063, 0.9152832, 48.90244, 2.164634, -29.08537, 20.88235
6.223496, -0.1293945, 0.07885742, 1.010498, 37.68293, -21.06707, -22.13415, 20.83529
6.232871, -0.2148438, 0.1645508, 0.9304199, 25.12195, -35.45732, -13.23171, 20.88235
6.242231, -0.2067871, 0.2463379, 0.8476563, 17.0122, -39.57317, -4.146341, 20.92941
6.251576, -0.1367188, 0.2780762, 0.7192383, 15.42683, -30.33537, 3.506098, 20.88235
6.280229, -0.0234375, -0.004882813, 0.7807617, 14.45122, -11.79878, 0.7012195, 20.97647
6.290152, -0.03125, 0.03637695, 0.920166, 7.286585, -19.42073, 1.006098, 20.88235
6.299634, -0.1486816, 0.1699219, 1.414063, -21.06707, -50.7622, -6.585366, 20.92941
6.309039, -0.2119141, 0.1193848, 1.298828, -40.64024, -89.39025, -5.823171, 21.02353
6.318479, -0.1877441, -0.1433105, 1.099854, -53.32317, -81.67684, -15.09146, 20.97647
6.327906, -0.06469727, -0.255127, 0.6320801, -37.62195, -46.09756, -23.23171, 20.92941
6.337354, 0.1472168, -0.1618652, 0.4199219, -13.23171, -9.756098, -25.51829, 20.83529
6.346726, 0.1689453, -0.1638184, 0.4951172, 3.140244, 9.237805, -22.34756, 20.88235
6.356103, 0.07226563, -0.09057617, 0.7524414, 10.64024, 17.13415, -23.5061, 20.92941
6.365452, 0.01171875, -0.05249023, 0.8605957, 12.89634, 19.17683, -25.97561, 20.97647
6.394321, 0.04272461, 0.03588867, 0.7539063, 16.03659, 11.82927, -28.56707, 20.92941
6.404214, -0.002685547, 0.01586914, 0.8513184, 9.695122, -4.054878, -24.5122, 20.88235
6.413746, -0.04980469, 0.05639648, 0.8571777, 1.036585, -15.91463, -22.19512, 20.92941
6.423197, -0.05322266, 0.04858398, 0.9223633, -7.134147, -23.2622, -21.52439, 20.83529
6.4326, -0.05395508, 0.05151367, 0.9462891, -10.33537, -24.66464, -22.43902, 20.88235
6.442024, 0.01025391, 0.08081055, 0.8505859, -9.02439, -20.39634, -17.7439, 20.92941
6.451449, 0.008056641, 0.05883789, 0.7189941, -4.481708, -9.359756, -12.68293, 20.88235
6.460815, -0.02392578, -0.05053711, 0.7597656, 1.006098, 0.3658537, -14.29878, 20.92941
6.470185, -0.005126953, -0.1074219, 0.8041992, 3.140244, -0.3658537, -12.86585, 20.88235
6.479523, 0.004638672, -0.02978516, 0.8620605, 4.939024, -1.890244, -9.695122, 20.92941
6.508574, -0.0559082, -0.03710938, 0.7304688, 5.335366, 0.6097561, 4.45122, 20.83529
6.518432, -0.08837891, -0.04345703, 0.7414551, 10.18293, 6.219512, 2.22561, 20.92941
6.528032, -0.09277344, -0.0390625, 0.7475586, 14.78659, 5.792683, 0.4573171, 20.88235
6.537415, -0.01269531, 0.09033203, 0.8864746, 11.25, 3.20122, 2.195122, 20.83529
6.546752, 0.03491211, 0.08374023, 0.8254395, 11.58537, 5.152439, 1.768293, 20.97647
6.556167, 0.0859375, 0.07763672, 0.7375488, 17.13415, 13.20122, 0.2439024, 20.92941
6.565482, 0.0234375, -0.0300293, 0.6472168, 25.2439, 23.41464, -6.036585, 20.97647
6.574846, -0.07836914, -0.07202148, 0.6259766, 38.9939, 28.65854, -17.22561, 20.92941
6.584264, -0.154541, -0.1733398, 0.4619141, 65.39634, 18.5061, -30.15244, 20.97647
6.59362, -0.1538086, -0.1325684, 0.2514648, 97.59147, 1.371951, -36.34146, 20.92941
6.622816, -0.08276367, -0.4987793, 7.999756, -81.31098, -78.17073, -16.70732, 20.92941
6.632728, -0.3474121, 0.1555176, -0.1347656, -33.71951, -25.73171, -16.64634, 20.97647
6.642388, 0.185791, 0.06591797, -0.0234375, -17.28659, 13.07927, -16.98171, 20.88235
6.651836, 0.2211914, -0.1362305, 0.2836914, -29.72561, 26.67683, -21.58537, 21.02353
6.661241, -0.03613281, 0.01000977, 0.1113281, -78.14024, 39.48171, -27.83537, 20.88235
6.670601, -0.08422852, 0.3156738, 1.876953, -169.7866, -0.6097561, -13.17073, 20.92941
6.679999, -0.197998, 0.6616211, -0.4770508, 78.47561, -17.13415, -0.2439024, 20.97647
6.689355, 0.2067871, 0.07543945, 0.9138184, 4.847561, -4.45122, -0.06097561, 20.92941
6.698707, -0.04125977, 0.0871582, 0.6220703, -8.140244, -3.445122, -0.7926829, 20.88235
6.708078, -0.04956055, -0.02807617, 0.907959, -2.5, 0.06097561, -0.3963415, 20.92941
6.73743, -0.05200195, -0.001708984, 0.8322754, -0.6097561, -1.341463, -0.6097561, 20.88235
6.74731, -0.04443359, 0.01757813, 0.8081055, -1.615854, -1.128049, -0.4878049, 20.92941
6.756931, -0.05932617, 0.006103516, 0.8190918, -1.097561, -1.189024, -0.4573171, 20.97647
6.766431, -0.04638672, 0.0007324219, 0.8222656, -0.7012195, -1.097561, -0.6097561, 20.92941
6.775852, -0.05078125, 0.01171875, 0.8220215, -1.615854, -1.128049, -0.6707317, 20.88235
6.785264, -0.05078125, 0.001220703, 0.8068848, -0.9756098, -1.097561, -0.4573171, 20.88235
6.794644, -0.04785156, 0.005371094, 0.8210449, -1.189024, -1.341463, -0.4573171, 20.83529
6.804067, -0.0456543, 0.001464844, 0.7990723, -1.402439, -1.280488, -0.5792683, 20.97647
6.813486, -0.0456543, 0.008300781, 0.8198242, -1.067073, -1.128049, -0.4268293, 20.92941
6.822872, -0.04858398, 0.004150391, 0.8278809, -1.036585, -1.189024, -0.4878049, 20.92941
6.85242, -0.04663086, 0.006347656, 0.8173828, -1.280488, -1.097561, -0.5487805, 20.97647
6.862412, -0.05126953, 0.002929688, 0.8161621, -1.310976, -1.189024, -0.5487805, 20.92941
6.872076, -0.05395508, 0.006835938, 0.8181152, -1.341463, -1.158537, -0.3353659, 20.92941
6.881502, -0.05200195, 0.001953125, 0.807373, -1.219512, -1.219512, -0.4878049, 20.88235
6.890913, -0.05175781, 0.004394531, 0.8186035, -1.402439, -1.25, -0.5487805, 20.88235
6.900329, -0.04711914, 0.005859375, 0.8181152, -1.036585, -0.9756098, -0.4573171, 21.02353
6.909707, -0.05249023, -0.0009765625, 0.8151855, -1.219512, -1.097561, -0.6097561, 20.88235
6.919094, -0.04785156, 0.002441406, 0.8171387, -1.310976, -1.25, -0.4573171, 20.83529
6.928483, -0.05175781, 0.008544922, 0.8186035, -1.067073, -1.006098, -0.6402439, 21.02353
6.937918, -0.04956055, 0.009521484, 0.8083496, -1.280488, -1.006098, -0.4878049, 20.97647
6.967634, -0.0546875, 0.004882813, 0.8181152, -1.036585, -0.945122, -0.5182927, 20.97647
6.977594, -0.05175781, 0.005859375, 0.8156738, -0.7621951, -1.128049, -0.4268293, 20.97647
6.98723, -0.04003906, -0.01464844, 0.8095703, 0.7926829, -0.8231708, -0.5792683, 20.92941
6.996676, -0.03662109, 0.01220703, 0.8249512, -0.6097561, -1.128049, -0.6097561, 20.92941
7.00614, -0.04736328, 0.01049805, 0.8222656, -1.097561, -0.9756098, -0.4573171, 20.88235
7.0155, -0.04467773, -0.003662109, 0.8254395, -0.6097561, -1.067073, -0.4268293, 20.92941
7.024897, -0.04492188, 0.006103516, 0.8190918, -0.9756098, -1.097561, -0.5792683, 20.88235
7.034285, -0.05224609, 0.008789063, 0.822998, -1.859756, -0.8536586, -0.7012195, 20.88235
7.0437, -0.04516602, 0.002929688, 0.7971191, -0.5182927, -1.067073, -0.4878049, 20.83529
7.053086, -0.04711914, 0.009277344, 0.8286133, -0.945122, -0.9756098, -0.4878049, 20.97647
7.082994, -0.04760742, 0.01147461, 0.8249512, -0.8841463, -1.097561, -0.5182927, 20.97647
7.092941, -0.05371094, 0.008300781, 0.826416, -0.5487805, 0.0, -0.2439024, 20.92941
7.102571, -0.05444336, 0.002441406, 0.8527832, 0.5487805, -1.371951, -0.4268293, 20.92941
7.112032, -0.04980469, 0.01538086, 0.8161621, -1.219512, -1.310976, -0.5792683, 20.97647
7.121426, -0.04516602, -0.002685547, 0.8161621, -0.6097561, -0.7621951, -0.4573171, 20.88235
7.130823, -0.05249023, 0.005126953, 0.8200684, -0.06097561, -1.189024, -0.304878, 20.92941
7.140231, -0.04931641, 0.009521484, 0.8259277, -0.2134146, -1.341463, -0.4268293, 20.92941
7.149595, -0.03759766, 0.06494141, 0.7756348, -7.896342, -2.682927, -0.1219512, 20.92941
7.158945, -0.03564453, -0.02880859, 0.8190918, 0.6097561, -0.9756098, -0.2439024, 20.88235
7.168309, -0.04907227, 0.005371094, 0.8110352, 1.859756, -0.7621951, -0.304878, 20.92941
7.198406, -0.05200195, 0.002441406, 0.8100586, 0.2743902, -0.7012195, -0.304878, 20.83529
7.208459, -0.04785156, 0.01049805, 0.8076172, 0.5792683, -0.8841463, -0.2439024, 20.88235
7.218036, -0.04663086, 0.01831055, 0.8054199, 0.6097561, -0.7012195, -0.3963415, 20.97647
7.22752, -0.05249023, 0.006835938, 0.8171387, 0.7926829, -0.7012195, -0.1829268, 20.83529
7.236943, -0.04980469, 0.007324219, 0.8210449, -0.0304878, -0.7926829, 0.0, 20.92941
7.246369, -0.04858398, 0.003417969, 0.8081055, -0.0304878, -1.006098, -0.4573171, 20.97647
7.25579, -0.05102539, 0.01025391, 0.8203125, -0.152439, -0.9146341, -0.3963415, 20.92941
7.265134, -0.04443359, 0.01171875, 0.8269043, -0.3963415, -1.006098, 0.06097561, 20.92941
7.274565, -0.03271484, 0.02856445, 0.8205566, -0.8231708, -1.158537, 3.628049, 20.97647
7.283931, -0.01782227, 0.06201172, 0.8293457, -0.9146341, -0.7317073, 8.414635, 20.92941
7.314201, -0.0246582, -0.04272461, 0.8242188, -3.20122, -1.067073, 11.0061, 20.92941
7.32434, -0.09619141, -0.05493164, 0.8095703, -2.865854, -0.945122, 6.890244, 20.97647
7.333923, -0.09277344, -0.05493164, 0.8261719, -2.591464, -1.158537, 2.77439, 20.92941
7.343367, -0.06542969, -0.02709961, 0.8022461, -1.737805, -0.6097561, 1.402439, 20.92941
7.352785, -0.05322266, 0.01733398, 0.8183594, -1.95122, -0.7317073, 1.859756, 20.88235
7.362159, -0.07617188, -0.004150391, 0.8139648, -1.097561, -0.7012195, 0.3353659, 21.02353
7.371549, -0.06054688, 0.001464844, 0.8139648, -0.8841463, -0.8231708, 0.1219512, 20.88235
7.38092, -0.04882813, 0.002441406, 0.8151855, 0.0304878, -0.7012195, 0.1829268, 20.92941
7.390267, -0.03857422, 0.02416992, 0.8161621, 0.5182927, -0.6097561, 3.323171, 20.97647
7.399595, 0.0168457, 0.09814453, 0.8256836, -0.1829268, -0.3353659, 11.92073, 20.92941
7.429971, -0.06665039, 0.03564453, 0.7851563, -3.262195, -0.2134146, 23.35366, 20.92941
7.440008, -0.08349609, 0.04174805, 0.8041992, -2.713415, -1.036585, 18.04878, 20.97647
7.449538, -0.1296387, -0.05981445, 0.8354492, -2.743902, -0.8841463, 11.21951, 20.92941
7.458969, -0.1479492, -0.1018066, 0.8115234, -2.591464, -0.9756098, 5.609756, 20.92941
7.468408, -0.09643555, -0.05517578, 0.817627, -2.469512, -0.9756098, 1.920732, 20.97647
7.477771, -0.09106445, -0.02856445, 0.8261719, -2.408537, -1.128049, 0.4878049, 20.92941
7.487164, -0.05981445, -0.002441406, 0.8115234, -2.164634, -1.219512, 0.2439024, 20.88235
7.496595, -0.05102539, 0.006103516, 0.8227539, -1.829268, -1.067073, 0.2439024, 21.02353
7.505949, -0.01342773, 0.01782227, 0.8220215, -1.829268, -1.067073, 4.573171, 20.97647
7.515305, -0.0378418, -0.001220703, 0.8181152, -1.585366, -1.006098, 4.390244, 20.97647
7.545908, -0.003173828, 0.04174805, 0.8168945, -2.22561, -0.7926829, 13.10976, 20.88235
7.555994, -0.007324219, 0.01025391, 0.8022461, -2.591464, -0.3963415, 13.17073, 20.97647
7.565519, -0.1374512, -0.05541992, 0.798584, -2.134146, -0.8231708, 4.573171, 20.97647
7.574947, -0.1306152, -0.04345703, 0.8120117, -1.859756, -1.097561, -0.304878, 20.83529
7.584359, -0.05688477, 0.00390625, 0.8098145, -1.920732, -1.158537, -0.7012195, 20.92941
7.593806, -0.05151367, 0.01269531, 0.8151855, -2.012195, -1.067073, -0.6097561, 20.97647
7.603216, -0.05200195, 0.007568359, 0.8198242, -2.103659, -1.219512, -0.6707317, 21.02353
7.612609, -0.04858398, 0.01049805, 0.8168945, -2.195122, -1.158537, -0.945122, 20.83529
7.622016, -0.05175781, 0.001464844, 0.8166504, -1.829268, -1.006098, -0.6402439, 20.97647
7.631439, -0.05200195, 0.008789063, 0.8193359, -1.432927, -1.158537, -0.5487805, 21.02353
7.662179, -0.05175781, 0.01196289, 0.809082, -1.097561, -1.219512, -0.5487805, 20.97647
7.672176, -0.04589844, 0.01049805, 0.8166504, -1.310976, -0.945122, -0.09146341, 20.92941
7.681737, -0.0534668, 0.009521484, 0.8120117, -1.676829, -1.128049, 0.0304878, 20.92941
7.691196, -0.04614258, 0.006835938, 0.8188477, -1.615854, -1.036585, -0.2134146, 20.97647
7.700598, -0.05541992, 0.0002441406, 0.8166504, -1.52439, -1.219512, -0.4268293, 20.92941
7.710003, -0.05541992, 0.006835938, 0.8137207, -1.768293, -1.036585, -0.5487805, 20.92941
7.719387, -0.04931641, 0.01318359, 0.8220215, -2.012195, -1.036585, -0.6097561, 20.97647
7.728806, -0.04614258, 0.009277344, 0.8100586, -1.859756, -1.036585, -0.6402439, 20.92941
7.738168, -0.05249023, 0.004394531, 0.8186035, -1.737805, -1.189024, -0.5182927, 20.97647
7.747549, -0.05322266, 0.008544922, 0.8254395, -1.554878, -1.158537, -0.5792683, 20.92941
7.778536, -0.05249023, 0.009521484, 0.8125, -1.128049, -1.25, -0.4573171, 20.97647
7.788588, -0.04516602, 0.008544922, 0.8166504, -1.128049, -1.341463, -0.6707317, 20.78824
7.798184, -0.05053711, 0.006347656, 0.8164063, -1.128049, -1.067073, -0.4878049, 20.83529
7.807614, -0.04589844, 0.009765625, 0.8222656, -1.189024, -1.310976, -0.6097561, 20.97647
7.817014, -0.04956055, 0.008056641, 0.8186035, -1.310976, -1.067073, -0.5792683, 20.97647
7.82645, -0.04980469, 0.01025391, 0.810791, -1.768293, -0.6707317, -0.5792683, 20.92941
7.835845, -0.04980469, 0.001464844, 0.8129883, -1.737805, -1.006098, -0.4573171, 20.88235
7.845194, -0.05712891, 0.008056641, 0.815918, -2.134146, -1.006098, -0.5182927, 20.92941
7.854551, -0.04956055, 0.006591797, 0.8156738, -1.95122, -1.097561, -0.5487805, 20.83529
7.86392, -0.05297852, 0.003662109, 0.8164063, -1.585366, -1.128049, -0.5182927, 20.92941
7.895004, -0.04345703, 0.004150391, 0.8222656, -1.585366, -1.219512, -0.4878049, 20.92941
7.905086, -0.04980469, 0.006347656, 0.8139648, -1.52439, -1.189024, -0.4878049, 20.88235
7.914668, -0.046875, 0.01123047, 0.8205566, -1.798781, -0.8841463, -0.5792683, 21.07059
7.924132, -0.05175781, 0.008789063, 0.8220215, -1.585366, -1.189024, -0.7012195, 20.97647
7.933575, -0.05224609, 0.003417969, 0.8200684, -1.585366, -1.006098, -0.4878049, 21.02353
7.943016, -0.05786133, 0.006591797, 0.8039551, -2.164634, -0.8231708, -0.6097561, 20.97647
7.952384, -0.04980469, 0.0078125, 0.8168945, -2.103659, -0.9756098, -0.8231708, 20.92941
7.961733, -0.0546875, 0.0078125, 0.8186035, -1.981707, -1.067073, -0.5182927, 21.02353
7.971179, -0.04956055, -0.003417969, 0.8103027, -1.646341, -1.067073, -0.5182927, 20.97647
7.980549, -0.04858398, 0.0009765625, 0.8220215, -1.615854, -1.158537, -0.6097561, 20.92941
8.011792, -0.05175781, 0.006835938, 0.8234863, -1.158537, -1.128049, -0.6097561, 21.02353
8.02193, -0.05029297, 0.009521484, 0.822998, -1.341463, -1.310976, -0.6097561, 20.88235
8.031487, -0.04956055, 0.006591797, 0.8149414, -1.52439, -1.067073, -0.5182927, 20.92941
8.040874, -0.0480957, 0.009765625, 0.8078613, -2.042683, -1.036585, -0.7926829, 20.97647
8.050309, -0.0480957, 0.007324219, 0.8129883, -2.439024, -0.8231708, -0.7621951, 21.02353
8.059693, -0.05395508, 0.005615234, 0.8190918, -3.079268, -0.5182927, -0.6707317, 21.02353
8.069063, -0.05297852, 0.0009765625, 0.8317871, -2.835366, -0.9756098, -0.6402439, 20.97647
8.078495, -0.06030273, -0.0002441406, 0.8188477, -2.134146, -1.189024, -0.7621951, 21.02353
8.087901, -0.05151367, -0.003173828, 0.8134766, -1.585366, -1.189024, -0.8536586, 21.02353
8.09731, -0.04394531, 0.0, 0.8217773, -1.371951, -1.25, -0.8841463, 20.88235
8.128756, -0.05200195, 0.007324219, 0.8203125, -0.9146341, -1.006098, -0.6097561, 21.02353
8.138805, -0.0559082, 0.004394531, 0.8239746, -1.006098, -1.128049, -0.5792683, 20.88235
8.148411, -0.05053711, 0.001464844, 0.8217773, -0.7317073, -1.128049, -0.4268293, 21.02353
8.157845, -0.05200195, 0.006347656, 0.815918, -0.4573171, -1.128049, -0.4268293, 21.02353
8.16725, -0.05541992, 0.0009765625, 0.8227539, -0.7621951, -1.128049, -0.4573171, 20.92941
8.176606, -0.04907227, 0.006835938, 0.8066406, -0.9146341, -1.097561, -0.4268293, 21.02353
8.186027, -0.0480957, 0.01318359, 0.8059082, -1.25, -0.9756098, -0.6707317, 20.97647
8.195386, -0.05102539, 0.004394531, 0.8193359, -1.432927, -1.128049, -0.4878049, 20.97647
8.204818, -0.05419922, 0.005615234, 0.8088379, -1.128049, -1.097561, -0.5792683, 20.92941
8.214226, -0.04907227, 0.008056641, 0.8071289, -1.280488, -0.945122, -0.5792683, 20.83529
8.245776, -0.05102539, 0.005859375, 0.817627, -0.8536586, -1.158537, -0.4878049, 20.83529
8.255781, -0.05834961, -0.001464844, 0.8188477, -0.8536586, -1.067073, -0.5487805, 20.97647
8.265345, -0.05395508, 0.006591797, 0.8217773, -0.945122, -1.280488, -0.6097561, 20.97647
8.274769, -0.05493164, 0.003662109, 0.8156738, -0.9756098, -1.128049, -0.3658537, 21.02353
8.284185, -0.04931641, 0.001220703, 0.8225098, -0.9146341, -1.219512, -0.4573171, 21.02353
8.293597, -0.05151367, 0.008056641, 0.8117676, -0.7621951, -1.25, -0.6097561, 21.07059
8.302978, -0.04956055, 0.005859375, 0.8203125, -0.7621951, -1.067073, -0.6402439, 21.02353
8.312346, -0.04931641, 0.005371094, 0.8120117, -1.189024, -0.9756098, -0.4573171, 20.97647
8.321768, -0.05200195, 0.009765625, 0.8132324, -1.341463, -1.25, -0.5792683, 21.02353
8.331177, -0.05297852, 0.002197266, 0.822998, -1.341463, -1.158537, -0.6402439, 21.02353
8.362961, -0.05371094, 0.0007324219, 0.8166504, -1.097561, -1.341463, -0.5487805, 20.92941
8.373076, -0.04589844, -0.0002441406, 0.8134766, -1.158537, -1.006098, -0.5792683, 20.97647
8.38263, -0.05151367, 0.002197266, 0.8146973, -0.9756098, -1.189024, -0.7317073, 21.02353
8.392066, -0.05249023, 0.009521484, 0.8144531, -1.067073, -1.067073, -0.4878049, 20.97647
8.401431, -0.05322266, 0.01025391, 0.8144531, -0.9146341, -1.158537, -0.4878049, 20.92941
8.410848, -0.05126953, 0.002441406, 0.814209, -1.036585, -1.158537, -0.6707317, 20.88235
8.420176, -0.05371094, 0.0004882813, 0.8232422, -0.945122, -1.158537, -0.6097561, 20.88235
8.429589, -0.05493164, 0.004882813, 0.8100586, -0.9756098, -1.219512, -0.6097561, 21.02353
8.438972, -0.05102539, 0.004882813, 0.814209, -1.006098, -1.189024, -0.4268293, 20.97647
8.448385, -0.04785156, 0.005371094, 0.8151855, -1.128049, -1.189024, -0.4573171, 21.02353
8.480349, -0.04956055, 0.003173828, 0.8217773, -1.768293, -0.9756098, -0.5487805, 20.88235
8.490446, -0.04931641, 0.002929688, 0.8186035, -1.737805, -1.097561, -0.6402439, 20.92941
8.50002, -0.05004883, 0.003417969, 0.8129883, -1.310976, -1.219512, -0.6402439, 20.92941
8.509385, -0.0480957, 0.004638672, 0.815918, -1.280488, -1.158537, -0.4878049, 20.97647
8.518822, -0.04785156, 0.002441406, 0.822998, -1.036585, -1.25, -0.3963415, 20.92941
8.528269, -0.04760742, 0.001708984, 0.8181152, -1.097561, -1.097561, -0.6707317, 20.83529
8.537641, -0.04980469, 0.004150391, 0.8181152, -1.036585, -1.128049, -0.5792683, 20.97647
8.546999, -0.05102539, 0.006591797, 0.8095703, -1.280488, -1.097561, -0.4268293, 20.92941
8.556387, -0.05029297, 0.002929688, 0.8181152, -1.219512, -1.189024, -0.3963415, 20.92941
8.565826, -0.05200195, 0.004394531, 0.8190918, -1.219512, -1.036585, -0.4878049, 20.92941
8.597929, -0.04907227, 0.006103516, 0.8083496, -1.493902, -1.219512, -0.6097561, 20.92941
8.607944, -0.05517578, 0.007324219, 0.8193359, -1.585366, -1.219512, -0.5487805, 20.88235
8.617455, -0.04736328, 0.008300781, 0.8144531, -1.829268, -1.036585, -0.6097561, 20.92941
8.626883, -0.05395508, 0.0002441406, 0.8178711, -1.52439, -0.9146341, -0.6707317, 20.92941
8.636307, -0.05371094, -0.001464844, 0.8222656, -1.554878, -1.189024, -0.3658537, 20.97647
8.645718, -0.05517578, 0.004882813, 0.8139648, -1.493902, -1.219512, -0.4573171, 20.92941
8.655095, -0.04711914, 0.006591797, 0.8129883, -1.402439, -1.219512, -0.5792683, 20.97647
8.664451, -0.05004883, 0.0009765625, 0.822998, -1.463415, -1.036585, -0.5487805, 21.02353
8.673822, -0.04467773, 0.004882813, 0.8198242, -1.432927, -1.280488, -0.4573171, 20.97647
8.683213, -0.05126953, 0.00390625, 0.8278809, -1.158537, -0.9756098, -0.5792683, 20.92941
8.715491, -0.05249023, 0.008789063, 0.8100586, -1.554878, -1.158537, -0.6402439, 20.88235
8.725643, -0.05371094, 0.005859375, 0.8208008, -1.585366, -1.006098, -0.5182927, 20.97647
8.735152, -0.05957031, 0.003417969, 0.8261719, -1.52439, -1.097561, -0.5792683, 20.97647
8.74456, -0.05541992, 0.004150391, 0.8168945, -1.829268, -1.006098, -0.5182927, 20.92941
8.753996, -0.05078125, 0.001708984, 0.8134766, -1.859756, -0.945122, -0.6097561, 20.92941
8.763437, -0.05249023, 0.01367188, 0.8161621, -2.317073, -1.25, -0.6097561, 20.97647
8.772832, -0.05371094, -0.001708984, 0.8232422, -1.615854, -1.219512, -0.5487805, 20.97647
8.782256, -0.04980469, 0.005126953, 0.8146973, -1.707317, -1.189024, -0.6402439, 20.97647
8.791583, -0.05004883, 0.004882813, 0.8205566, -1.25, -1.280488, -0.4573171, 20.92941
8.800997, -0.04394531, 0.0004882813, 0.8183594, -1.097561, -1.067073, -0.7012195, 20.92941
8.833447, -0.05053711, 0.005371094, 0.815918, -0.8536586, -1.189024, -0.4878049, 20.92941
8.843661, -0.05200195, 0.002197266, 0.8215332, -1.036585, -0.9756098, -0.3963415, 21.02353
8.853154, -0.05688477, 0.01000977, 0.8139648, -1.615854, -1.036585, -0.6097561, 20.92941
8.862631, -0.05761719, 0.005371094, 0.8171387, -1.585366, -1.219512, -0.5792683, 20.88235
8.872021, -0.0480957, 0.003173828, 0.8154297, -1.432927, -0.9756098, -0.3658537, 20.97647
8.881442, -0.05053711, 0.005859375, 0.8203125, -1.707317, -1.219512, -0.7317073, 20.92941
8.890857, -0.05053711, 0.001464844, 0.8120117, -1.890244, -1.097561, -0.6402439, 21.02353
8.900285, -0.05615234, 0.004394531, 0.8183594, -1.890244, -1.189024, -0.6707317, 21.02353
8.909565, -0.05175781, 0.005859375, 0.8227539, -1.707317, -1.128049, -0.6707317, 20.97647
8.918969, -0.05151367, 0.002197266, 0.8122559, -1.646341, -1.097561, -0.5792683, 21.02353
8.951568, -0.05053711, 0.008544922, 0.8081055, -1.585366, -1.067073, -0.5792683, 20.97647
8.961713, -0.04711914, 0.003417969, 0.8312988, -1.341463, -1.219512, -0.4878049, 20.97647
8.97119, -0.04736328, -0.002197266, 0.8215332, -1.341463, -1.067073, -0.3353659, 20.97647
8.980612, -0.04785156, 0.00390625, 0.8151855, -1.371951, -1.097561, -0.6707317, 20.92941
8.990029, -0.05200195, 0.005859375, 0.8125, -1.432927, -1.006098, -0.5792683, 20.88235
8.999377, -0.05297852, 0.0002441406, 0.8149414, -1.52439, -0.9146341, -0.3963415, 21.02353
9.008802, -0.05224609, 0.007568359, 0.8188477, -1.737805, -1.036585, -0.6097561, 21.02353
9.018195, -0.05566406, 0.002685547, 0.8181152, -1.676829, -1.067073, -0.6097561, 21.07059
9.027545, -0.05004883, 0.001708984, 0.8168945, -1.707317, -1.219512, -0.5792683, 21.02353
9.036936, -0.05444336, 0.0004882813, 0.8200684, -1.585366, -1.25, -0.6402439, 20.97647
9.069705, -0.05249023, -0.006103516, 0.8288574, -1.280488, -1.128049, -0.7317073, 20.97647
9.079918, -0.04833984, 0.004638672, 0.8105469, -1.371951, -1.097561, -0.8841463, 20.92941
9.089398, -0.05810547, 0.001708984, 0.8110352, -1.25, -1.158537, -0.8231708, 21.02353
9.098866, -0.05053711, -0.001708984, 0.8239746, -1.341463, -1.006098, -0.5182927, 20.88235
9.108304, -0.04711914, 0.009033203, 0.8208008, -1.280488, -1.189024, -0.6097561, 20.92941
9.117706, -0.05200195, -0.002441406, 0.8154297, -1.219512, -1.128049, -0.6402439, 21.02353
9.127104, -0.05688477, 0.003417969, 0.8181152, -1.432927, -1.25, -0.5182927, 20.97647
9.136452, -0.05249023, 0.001708984, 0.8215332, -1.158537, -1.219512, -0.5792683, 21.02353
9.145848, -0.05078125, -0.002685547, 0.8164063, -1.341463, -1.219512, -0.5182927, 20.97647
9.15524, -0.04956055, 0.005615234, 0.8171387, -1.371951, -0.945122, -0.4878049, 20.92941
9.188229, -0.05102539, 0.004394531, 0.8127441, -1.463415, -1.036585, -0.3658537, 21.02353
9.198352, -0.05151367, 0.01000977, 0.8254395, -1.371951, -1.128049, -0.6402439, 20.97647
9.207853, -0.05224609, 0.005859375, 0.822998, -1.493902, -1.097561, -0.4878049, 20.92941
9.217285, -0.05371094, 0.004638672, 0.8276367, -1.463415, -1.25, -0.4878049, 20.92941
9.226716, -0.04638672, 0.002197266, 0.8232422, -1.25, -1.097561, -0.6097561, 20.88235
9.236094, -0.05395508, 0.003662109, 0.8132324, -1.341463, -1.25, -0.6097561, 20.92941
9.245472, -0.05322266, 0.002197266, 0.8171387, -1.310976, -1.189024, -0.6707317, 21.07059
9.254841, -0.04760742, 0.001708984, 0.8164063, -1.158537, -1.097561, -0.7926829, 20.92941
9.264194, -0.05444336, 0.002197266, 0.8222656, -1.036585, -1.310976, -0.8536586, 20.92941
9.273571, -0.05371094, 0.006347656, 0.8134766, -1.067073, -1.158537, -1.006098, 20.92941
9.306686, -0.05078125, 0.0009765625, 0.815918, -0.4573171, -1.371951, -0.6707317, 20.92941
9.316705, -0.0534668, 0.0, 0.8244629, 0.09146341, -1.554878, -0.5182927, 20.92941
9.326178, -0.04907227, 0.002441406, 0.8208008, 0.3658537, -1.432927, -0.5487805, 20.97647
9.335563, -0.05371094, 0.0007324219, 0.8203125, 0.7621951, -1.493902, -0.4878049, 20.97647
9.345009, -0.04321289, 0.005371094, 0.8166504, 0.9756098, -1.646341, -0.2439024, 21.02353
9.354409, -0.05053711, 0.003417969, 0.815918, 1.341463, -2.103659, -0.4268293, 20.88235
9.363815, -0.0456543, 0.009277344, 0.8166504, 1.585366, -1.493902, -0.6707317, 20.97647
9.373194, -0.05639648, 0.01049805, 0.8137207, 1.52439, -1.585366, -0.6402439, 21.02353
9.382604, -0.05371094, 0.005126953, 0.8188477, 1.829268, -1.737805, -0.6402439, 20.97647
9.391978, -0.05078125, 0.002685547, 0.8083496, 2.042683, -1.707317, -1.25, 21.02353
9.425333, -0.04858398, 0.005615234, 0.8300781, -2.286585, -2.134146, -0.8841463, 20.97647
9.435473, -0.05517578, 0.001464844, 0.7805176, -2.621951, -1.646341, -0.945122, 20.83529
9.445011, -0.03295898, -0.003662109, 0.8459473, -2.957317, -1.554878, -0.8536586, 20.97647
9.454433, -0.05175781, 0.002441406, 0.8166504, -2.164634, -1.585366, -0.6402439, 20.92941
9.463837, -0.04589844, -0.006103516, 0.8544922, 0.4573171, -1.280488, -0.3658537, 20.92941
9.473244, -0.05712891, 0.008789063, 0.8012695, -3.292683, -1.554878, -0.8231708, 20.88235
9.482633, -0.05053711, 0.001708984, 0.8276367, -3.170732, -1.097561, -0.4878049, 20.97647
9.492095, -0.04418945, -0.006347656, 0.817627, -0.945122, -1.219512, -0.3963415, 20.92941
9.501493, -0.05004883, 0.01367188, 0.8222656, -0.8841463, -1.097561, -0.5792683, 20.88235
9.510863, -0.05322266, 0.007324219, 0.8210449, -1.432927, -1.158537, -0.5792683, 20.92941
9.544294, -0.04345703, 0.004150391, 0.8205566, -1.158537, -1.371951, -0.4268293, 20.97647
9.554377, -0.05200195, 0.003173828, 0.8164063, -1.128049, -1.006098, -0.5487805, 20.97647
9.563862, -0.06030273, 0.0002441406, 0.8217773, -1.036585, -1.219512, -0.5182927, 20.88235
9.573302, -0.04736328, 0.005615234, 0.817627, -1.219512, -1.189024, -0.4573171, 20.88235
9.58275, -0.04272461, 0.001464844, 0.8183594, -1.402439, -1.280488, -0.7621951, 20.92941
9.592166, -0.04785156, 0.007080078, 0.8181152, -1.128049, -1.280488, -0.6402439, 20.88235
9.601552, -0.05444336, 0.01293945, 0.8151855, -1.371951, -1.036585, -0.5487805, 20.88235
9.610971, -0.04858398, 0.003173828, 0.8188477, -1.219512, -1.097561, -0.5182927, 20.97647
9.620331, -0.04760742, 0.007568359, 0.8168945, -1.341463, -1.158537, -0.5487805, 21.02353
9.629664, -0.04321289, 0.004638672, 0.8220215, -1.158537, -1.128049, -0.6097561, 20.88235
9.663331, -0.04907227, 0.003662109, 0.8195801, -1.128049, -1.097561, -0.3658537, 20.88235
9.673479, -0.05175781, 0.0002441406, 0.8181152, -1.219512, -1.189024, -0.5487805, 20.97647
9.682969, -0.04614258, 0.004394531, 0.8149414, -1.341463, -1.128049, -0.3963415, 20.88235
9.692416, -0.04785156, 0.006835938, 0.8222656, -1.067073, -1.067073, -0.5792683, 21.02353
9.701842, -0.04833984, -0.0007324219, 0.8125, -1.189024, -1.189024, -0.3963415, 20.92941
9.711296, -0.04858398, 0.004638672, 0.8212891, -1.189024, -1.128049, -0.4878049, 20.97647
9.720716, -0.04345703, 0.004394531, 0.814209, -1.280488, -1.219512, -0.4573171, 21.11765
9.730062, -0.04931641, 0.004150391, 0.8081055, -1.341463, -1.128049, -0.7012195, 20.97647
9.739443, -0.04931641, 0.008300781, 0.8151855, -1.189024, -1.128049, -0.5792683, 21.02353
9.748822, -0.04711914, 0.00390625, 0.8144531, -1.219512, -1.067073, -0.3963415, 20.97647
9.782631, -0.05444336, 0.002441406, 0.8151855, -1.189024, -0.9756098, -0.3658537, 21.02353
9.792713, -0.05004883, 0.005615234, 0.8146973, -1.097561, -1.097561, -0.6707317, 20.92941
9.802193, -0.04516602, 0.0078125, 0.8093262, -1.158537, -1.25, -0.4878049, 20.97647
9.811576, -0.05175781, 0.002685547, 0.815918, -1.341463, -0.945122, -0.5487805, 20.92941
9.820974, -0.05102539, 0.00390625, 0.8190918, -1.036585, -1.067073, -0.4573171, 21.02353
9.830416, -0.04833984, 0.0002441406, 0.8132324, -1.128049, -1.25, -0.6097561, 20.97647
9.839766, -0.05419922, 0.008056641, 0.8125, -1.128049, -1.067073, -0.6097561, 21.02353
9.849207, -0.05786133, 0.008544922, 0.8237305, -1.097561, -1.097561, -0.5182927, 20.92941
9.858608, -0.0546875, 0.006835938, 0.8234863, -1.097561, -1.067073, -0.4573171, 20.97647
9.868026, -0.05004883, 0.0009765625, 0.8210449, -1.219512, -1.189024, -0.4573171, 21.02353
9.901994, -0.04931641, 0.006591797, 0.8227539, -0.9756098, -1.097561, -0.5182927, 20.92941
9.912137, -0.04736328, 0.005615234, 0.817627, -1.280488, -0.9756098, -0.3353659, 21.02353
9.921619, -0.05078125, 0.003417969, 0.8203125, -1.219512, -1.067073, -0.3963415, 20.88235
9.931006, -0.04907227, 0.006835938, 0.8154297, -1.280488, -1.189024, -0.3963415, 20.88235
9.940423, -0.05297852, 0.008789063, 0.8166504, -1.371951, -1.067073, -0.4878049, 21.02353
9.949785, -0.05249023, 0.01049805, 0.814209, -1.280488, -1.189024, -0.4268293, 20.97647
9.959208, -0.05029297, 0.007324219, 0.8171387, -1.158537, -1.158537, -0.5487805, 21.02353
9.96857, -0.04858398, 0.001220703, 0.8115234, -1.189024, -1.189024, -0.3963415, 20.88235
9.977944, -0.05004883, 0.006103516, 0.8068848, -1.097561, -1.219512, -0.5487805, 21.02353
9.987299, -0.05053711, 0.005371094, 0.8100586, -1.219512, -1.128049, -0.304878, 20.97647
10.02153, -0.05224609, -0.001953125, 0.8125, -1.25, -1.097561, -0.4573171, 21.02353
10.03178, -0.0546875, 0.006347656, 0.810791, -1.128049, -1.097561, -0.5487805, 20.92941
10.04216, -0.05322266, 0.007324219, 0.8208008, -1.219512, -1.097561, -0.5487805, 21.07059
10.05235, -0.05834961, 0.003662109, 0.8186035, -1.189024, -1.036585, -0.5182927, 20.92941
10.06246, -0.05908203, 0.007080078, 0.815918, -1.097561, -1.128049, -0.4268293, 20.92941
10.07256, -0.05493164, 0.001708984, 0.8156738, -1.25, -1.158537, -0.6097561, 21.02353
10.08266, -0.05053711, 0.002197266, 0.8127441, -1.219512, -1.189024, -0.6402439, 20.92941
10.0934, -0.05224609, 0.00390625, 0.8076172, -1.158537, -1.189024, -0.3963415, 20.92941
