Time (s),acc_x,acc_y,acc_z,gx,gy,gz (deg/s)
41.50880957,0.04329365,0.01268973,0.9714589,-2.24275,0.8581451,-0.4784815
41.51888895,0.04669914,-0.003246056,0.9674666,-0.1490902,0.0814057,-0.2343635
41.52896786,0.04527564,-0.000287645,0.9781913,-0.02593367,-0.9343305,-0.05127494
41.53904724,0.04675757,-0.003605345,0.9874156,0.7745835,-1.71107,1.047256
41.54912615,0.04532849,-0.005023188,0.9922743,-0.5801378,-2.129314,2.023729
41.55920553,0.05065431,-0.000124733,1.003979,-0.3954031,-1.770819,0.8031382
41.56928492,0.05307005,0.005220824,1.010335,0.5282705,-0.7550829,0.9862267
41.57936382,0.0501812,-0.002045103,1.005427,-0.888029,0.2606533,1.413433
41.58944321,0.05014541,0.008061191,1.002082,-1.56539,0.4399008,0.4979907
41.59952259,0.04533779,0.002270572,1.002051,-1.873281,-0.2770894,1.108286
41.6096015,0.04868377,0.000754356,0.9903604,-1.442233,0.1411549,0.8031382
41.61968088,0.04384176,0.00070877,0.9835512,-0.3954031,0.1411549,-0.1123045
41.62976027,0.03711104,-0.004100791,0.9864469,-0.02593367,-0.7550829,-0.05127494
41.63983917,0.04435655,-0.006494657,0.9883732,0.03564457,-1.591572,-0.295393
41.64991856,0.04581213,-0.00501983,0.9927606,-1.072764,-0.157591,-0.173334
41.65999842,0.04335719,-0.002206095,0.9801275,-1.503812,0.4399008,-0.5395111
41.67007732,0.04432803,-0.004131384,0.9806017,-1.380655,-0.9343305,0.1318136
41.67763662,0.04720015,0.01182707,0.987509,-0.9496073,-1.591572,0.6200497
41.68771601,0.04580935,0.003702691,0.9996262,-1.442233,-1.412324,1.230345
41.69779539,0.04675711,0.003667421,0.9937857,-1.011186,-1.053829,1.291374
41.7078743,0.05453212,-0.0165664,0.9960901,-0.5185596,-0.6953337,1.230345
41.71795368,0.05643588,0.009081357,1.010356,-0.5185596,-0.456337,3.06123
41.72803307,0.05453802,-0.01121964,1.002935,-0.9496073,-0.8148321,2.450935
41.73811197,0.05405685,-0.01218751,1.002443,-1.19592,-0.7550829,1.901669
41.74819136,0.05060332,0.001705303,0.9879315,-1.934859,-1.053829,1.657551
41.75827026,0.03993945,0.01030894,0.9767998,-1.626968,-0.5160862,-0.05127494
41.76834965,0.04815626,-0.0100115,0.9649914,0.8361618,-0.2173402,-0.2343635
41.77842903,0.04186906,-0.000841396,0.9669984,2.437196,-0.9940796,-0.7225996
41.78850889,0.04283464,0.002556081,0.9704245,1.882992,-1.591572,-0.7836291
41.7985878,0.04431456,0.001658638,0.9811235,2.006148,-0.8745813,-1.393924
41.80866718,0.05067181,-0.01511953,0.9965886,0.4666923,-0.03809267,-1.149806
41.81874657,0.04536536,-0.01609698,0.9951267,-1.134342,0.7983959,-0.3564225
41.82882547,0.04776763,-0.004961407,1.002005,-1.380655,0.3204024,0.1318136
41.83890486,0.05117808,-0.01409768,1.00584,-1.257499,-0.3368386,-0.3564225
41.84898424,0.04873212,-0.01368921,0.9941655,1.267209,-0.2173402,1.169315
41.85906315,0.05301797,0.003654104,0.9908613,2.190883,-2.009816,1.596522
41.86914253,0.0496912,-0.004486713,1.000547,2.745087,-2.846304,0.9862267
41.87922144,0.0506994,-0.01166579,1.009261,1.759835,-2.906054,-0.173334
41.88930082,0.0501685,0.001806913,1.004477,1.020896,-2.726806,-0.9056881
41.89938021,0.04969803,0.00377155,1.010329,0.7745835,-2.786555,-1.88216
41.90945911,0.05794787,-0.000475625,1.024409,0.2203793,-1.233076,-2.187308
41.9195385,0.05457723,-0.00628616,1.02097,-1.011186,1.276389,-1.821131
41.92961788,0.05744871,-0.01409001,1.006322,-1.072764,2.112878,-1.821131
41.93969679,0.0482212,-0.007447285,0.9898243,-1.873281,2.590872,-1.332895
41.94977665,0.04384021,0.00022052,0.9825749,-1.811703,1.156891,-2.126278
41.95985603,0.05498244,-0.01614977,0.9853867,-2.119594,0.2009041,-1.88216
41.96993542,0.04869647,-0.01182618,0.9834713,-2.119594,-0.5160862,-0.9667177
41.98001432,0.04388484,-0.008412026,0.9903084,-2.058016,-0.6355845,-0.5395111
41.98757362,0.05402803,-0.006430477,0.9976119,-2.735376,-0.2173402,-0.5395111
41.99765301,0.04821874,0.006609998,1.001588,-2.61222,0.4399008,-1.027747
42.00773192,0.03955095,-0.005977014,0.994706,-2.920111,0.4399008,-2.004219
42.0178113,0.04390963,-0.009328544,0.9980887,-2.427485,0.3801516,-2.553485
42.02789068,0.05115127,-0.01076091,0.9995342,-2.181172,-0.157591,-2.004219
42.03796959,0.05212103,-0.01608295,0.9965816,-1.626968,-0.5758353,0.4369612
42.04804897,0.04962751,0.001195339,0.9835497,-1.442233,-2.308562,0.9251972
42.05812836,0.05013718,-0.00892859,0.9839745,0.09722282,-3.264549,0.4979907
42.06820726,0.05493084,-0.003167961,0.9791395,0.7745835,-3.563295,1.352404
42.07828713,0.0520561,-0.001190128,0.9874262,4.03823,-4.399783,2.695053
42.08836651,0.06224362,-0.004447368,1.005404,3.176135,-4.399783,2.634024
42.09844589,0.05650731,-0.01161648,1.016557,0.2819575,-2.667057,1.84064
42.1085248,0.04482129,0.004136237,0.9918436,-0.4569814,-2.846304,1.352404
42.11860418,0.04916881,0.000760713,0.9913332,-1.257499,-3.742542,0.8031382
42.12868309,0.05112074,-0.005977376,0.9932373,-0.6417161,-2.726806,0.4369612
42.13876247,0.06269395,-0.004030736,0.9947001,-1.380655,-1.651321,1.047256
42.14884186,0.05452391,-0.01173489,0.9975793,-1.257499,-0.7550829,0.1928431
42.15892077,0.06460155,-0.001165778,0.9898499,-2.427485,-0.9343305,0.6200497
42.16900015,0.05976357,-0.001687617,0.984011,-2.427485,-0.157591,-0.3564225
42.17907953,0.05350549,-0.001668301,0.9879088,-2.365907,0.2009041,-0.1123045
42.18915844,0.05982555,-0.01270743,0.9956229,-2.673798,0.3204024,-0.4784815
42.19923782,0.05693717,-0.01415335,0.9961029,-1.380655,1.395888,0.2538726
42.20931721,0.05882184,-0.004548857,0.9893471,-0.7032943,1.455637,-0.6615701
42.21939611,0.05883424,-0.005007116,0.9932373,-0.5801378,1.21664,-0.8446586
42.2294755,0.0564433,-0.006904932,0.9985805,-1.19592,0.0814057,-0.6615701
42.23955536,0.05988831,-0.03002951,1.001844,-1.380655,-0.3368386,0.3759317
42.24963427,0.05354097,-0.004016579,0.9981136,-1.56539,-1.233076,1.901669
42.25971365,0.0540271,-0.009341982,0.9946745,-1.380655,-0.9940796,0.8031382
42.26979303,0.05542069,-0.005575862,0.9796112,-0.9496073,-0.5160862,0.7421087
42.27987194,0.04964579,-0.00700894,0.9825266,-0.1490902,0.2606533,0.3759317
42.28995132,0.05257151,-0.01518107,0.9863677,0.09722282,1.037393,0.9251972
42.30003071,0.06270216,-0.008862251,0.9932109,-1.072764,1.754383,1.596522
42.30759001,0.05836145,-0.005956983,0.995665,-1.996438,2.053129,1.77961
42.31766892,0.06274291,-0.01653329,1.000464,-1.934859,2.471373,1.047256
42.3277483,0.0579074,-0.01801964,0.9946188,-2.058016,2.112878,1.413433
42.33782721,0.06612903,-0.01020452,1.009745,-2.858533,1.395888,0.3149022
42.34790659,0.0593526,-0.009778289,1.00148,-2.735376,1.097142,0.009754575
42.35798645,0.06420267,-0.02377799,0.9984721,-2.365907,0.2009041,-1.210836
42.36806583,0.04964656,-0.0133112,0.9771356,-1.257499,0.5593992,-0.05127494
42.37814474,0.0506188,-0.01523349,0.9780964,-0.3954031,0.2606533,0.6200497
42.38822413,0.08675168,0.003628304,0.9825627,-0.7648726,-0.2770894,2.939171
42.39830351,0.05259661,-0.02821986,0.9833689,0.8361618,0.8581451,1.352404
42.40838242,0.05935523,-0.01898606,0.9941252,0.3435358,-0.456337,2.328876
42.4184618,0.06125105,-0.02245036,0.9795043,-0.5185596,-1.412324,1.84064
42.42854118,0.05788135,-0.02534939,0.9790027,-0.888029,-2.248812,2.756083
42.43862009,0.0568603,-0.01043929,0.972768,-1.56539,-2.42806,3.976673
42.44869947,0.05446145,-0.006535087,0.9805794,-0.9496073,-1.113578,3.549467
42.45877886,0.04477263,0.004516519,0.9753011,0.7130053,-0.8148321,3.549467
42.46885777,0.04913765,-0.009489539,0.9713198,1.390366,-3.443796,1.352404
42.47893715,0.05882338,-0.01278913,0.9824845,1.020896,-3.204799,1.230345
42.48901606,0.05353679,-0.008389835,0.9927343,0.4666923,-2.308562,0.5590202
42.49909544,0.04626602,-0.002170946,0.9854783,0.7745835,-2.607308,-0.9056881
42.50917482,0.0593901,-0.01891108,1.006291,1.698257,-1.830568,-0.8446586
42.51925468,0.05747909,-0.01063026,1.019968,0.651427,0.0814057,-0.8446586
42.52933359,0.06814497,-0.02601842,1.025706,-1.257499,1.694634,-1.271865
42.53941298,0.05650109,-0.022298,1.004813,-2.365907,1.93363,-0.7836291
42.54949236,0.05163692,-0.01754206,0.9946266,-1.811703,-0.3368386,-0.3564225
42.55957127,0.0472736,-0.006926764,0.9961541,-1.134342,-1.830568,1.291374
42.56965065,0.04725315,0.003212521,0.9981623,-0.2722467,-2.368311,0.3759317
42.57973003,0.05455274,-0.01312766,1.00633,0.3435358,-2.308562,-0.2343635
42.58980894,0.06183869,-0.02416307,1.01453,0.09722282,-1.233076,-0.6005406
42.59988833,0.05847349,-0.02171834,1.020387,-0.8264508,0.2606533,0.07078408
42.60996723,0.06325831,-0.02615998,1.003325,-1.56539,1.097142,-0.3564225
42.62004662,0.05650496,-0.03198802,0.9974548,-2.181172,1.336138,-0.05127494
42.62760592,0.05405405,-0.02528628,0.9897115,-2.61222,1.754383,0.07078408
42.63768578,0.05790181,-0.02676015,0.9848334,-2.304329,1.336138,0.1928431
42.64776516,0.05692104,-0.02097685,0.9843827,-2.181172,0.3204024,-0.173334
42.65784407,0.05836624,-0.02146402,0.9834054,-1.56539,-0.8745813,-0.295393
42.66792345,0.05787811,-0.01371836,0.988319,-1.750125,-1.770819,-0.9056881
42.67800283,0.05550452,-0.0223677,0.993621,-1.442233,-1.352575,-1.332895
42.68808174,0.06325646,-0.02325447,1.005289,-2.735376,-0.2770894,-1.760101
42.69816113,0.06618914,-0.04014012,1.003724,-4.213254,0.3801516,-1.332895
42.70824003,0.06950754,-0.04074582,0.9832798,-3.966941,-0.5758353,-1.271865
42.71831942,0.05974542,-0.01481938,0.9659266,-2.427485,-1.412324,-1.210836
42.7283988,0.05734099,-0.01529144,0.967872,-0.888029,-2.487809,-1.577013
42.73847771,0.05689051,-0.01619332,0.9780858,-0.1490902,-1.950067,-2.248337
42.74855709,0.0598274,-0.02870572,0.9819005,1.144053,-1.173327,-2.248337
42.75863648,0.04973179,-0.02137152,0.9994709,0.7745835,-0.03809267,-1.149806
42.76871538,0.0560796,-0.02847166,1.020347,-0.7032943,2.112878,-0.5395111
42.77879477,0.04926846,-0.01454238,1.012165,-2.920111,3.726106,0.1928431
42.78887463,0.05019654,-0.01074063,1.002941,-3.597472,4.980839,-0.173334
42.79895401,0.05356252,-0.002030588,1.007371,-3.289581,5.817328,-1.88216
42.80903292,0.05306337,-0.01128071,0.9932036,-3.043268,5.817328,-2.126278
42.8191123,0.05404755,-0.01075275,1.000505,-1.934859,4.263849,-2.309367
42.82919169,0.05701263,-0.03532743,1.003274,-2.796955,3.248113,-1.577013
42.83927059,0.0458459,-0.02579865,0.9858218,-2.365907,0.6191484,-1.577013
42.84934998,0.04384004,-0.01335751,0.9703272,-1.996438,-1.830568,-1.577013
42.85942888,0.048184,-0.01916528,0.9663957,-0.6417161,-3.204799,-1.88216
42.86950827,0.04870668,-0.02780647,0.9726688,0.7745835,-1.890318,-0.173334
42.87958765,0.04775815,-0.0258332,0.9799807,0.8361618,-1.770819,-0.1123045
42.88966656,0.0487473,-0.02286998,0.99119,0.5898488,-2.129314,0.1318136
42.89974594,0.05794552,-0.02521143,1.001388,-0.5801378,-1.591572,0.009754575
42.90982533,0.06176399,-0.01801976,0.9941292,-1.319077,-0.2173402,0.6810792
42.91990423,0.06566955,-0.02615818,1.003323,-2.119594,0.2606533,0.1318136
42.92998362,0.06418872,-0.01944372,0.9975251,-1.134342,0.49965,0.9251972
42.940063,0.06418221,-0.01800296,0.9965607,-1.503812,0.7386467,0.2538726
42.94762278,0.0598319,-0.0189977,0.9921784,-0.9496073,0.3801516,-0.5395111
42.95770168,0.06028346,-0.01469906,0.9853914,-0.02593367,1.097142,-1.760101
42.96778107,0.05788848,-0.02484914,0.9819254,0.7130053,1.097142,-2.248337
42.97786045,0.06076338,-0.02634172,0.9741282,0.7745835,0.7386467,-2.797603
42.98793936,0.05596987,-0.02288858,0.9872915,1.882992,0.7983959,-2.675544
42.99801874,0.05793466,-0.03299344,0.990635,1.513522,1.21664,-1.760101
43.00809813,0.05986505,-0.032989,0.9911201,0.405114,0.8581451,-1.027747
43.01817703,0.05788879,-0.01951438,0.986824,-0.2722467,0.2606533,-0.7225996
43.02825642,0.05357071,-0.03304766,0.9823655,-0.08751191,-1.053829,0.4369612
43.0383358,0.05549227,-0.02142419,0.9902205,0.158801,-2.189063,0.1928431
43.04841471,0.05841738,-0.0228088,0.9999422,-0.02593367,-2.009816,0.4979907
43.05849409,0.05795652,-0.03003694,1.000872,-0.02593367,-1.173327,-0.1123045
43.06857395,0.05599065,-0.01460033,1.00194,-0.2106684,-0.7550829,-0.295393
43.07865286,0.05889173,-0.02137069,0.9984908,0.158801,-0.09784186,-0.295393
43.08873224,0.05983283,-0.01608619,0.9951157,0.2819575,0.6788976,-0.6005406
43.09881163,0.05935508,-0.01510705,0.9975551,0.5898488,1.515386,-1.454954
43.10889053,0.06086008,-0.03340755,1.001336,1.144053,2.531122,-1.210836
43.11896992,0.0599193,-0.03335728,1.009609,-0.1490902,3.42736,-0.3564225
43.1290493,0.0560393,-0.02807339,1.006725,-1.19592,2.71037,0.1318136
43.13912821,0.05499453,-0.02194279,0.9843783,-0.9496073,1.037393,-0.05127494
43.14920759,0.04870639,-0.01131993,0.9873673,-1.072764,-0.456337,-0.1123045
43.15928698,0.05839925,-0.02284779,0.9936159,-0.9496073,-0.3965878,1.047256
43.16936588,0.05408768,-0.02472906,1.00188,-1.319077,-0.2770894,0.4369612
43.17944527,0.0545411,-0.02333592,0.9931293,-0.3954031,-0.157591,-0.1123045
43.18952417,0.05452344,-0.01319064,0.9961106,-0.7032943,-0.9940796,-0.295393
43.19960356,0.05600179,-0.02766911,0.9940751,-0.3338249,-1.113578,-0.9056881
43.20968294,0.05749053,-0.03582133,1.001324,-0.6417161,-0.6355845,-0.2343635
43.21976185,0.05166233,-0.02524609,0.9965264,-0.5185596,-0.157591,0.6810792
43.22984171,0.05119186,-0.03200997,0.9945391,-0.3338249,-0.456337,0.6810792
43.23992109,0.05406846,-0.0281648,0.9921271,-0.3954031,-0.6953337,1.047256
43.25000048,0.05649427,-0.03055627,0.9950305,-1.19592,-0.2770894,0.4369612
43.25755978,0.05209902,-0.01952469,0.985855,-1.750125,-0.3368386,1.047256
43.26763868,0.0525884,-0.01902409,0.9887774,-1.072764,-1.053829,0.1318136
43.27771807,0.05499453,-0.01321427,0.9922172,-0.8264508,-0.3965878,0.2538726
43.28779697,0.05310164,-0.0223515,0.9965428,-0.08751191,-0.3965878,0.1928431
43.29787636,0.05115436,-0.01851292,0.9936478,-0.9496073,-0.3965878,0.4979907
43.30795574,0.05256733,-0.01519007,0.9849077,-0.7032943,-0.5160862,-0.05127494
43.31803465,0.05015081,-0.01859762,0.9800228,0.09722282,-0.8148321,0.009754575
43.32811403,0.05016026,-0.01954713,0.9824501,0.5282705,-0.456337,0.6200497
43.33819389,0.06275824,-0.02522882,0.9979777,0.4666923,0.9178943,0.3149022
43.34827328,0.05404026,-0.0161025,0.9931736,0.3435358,1.754383,0.6200497
43.35835218,0.05550018,-0.01849769,0.995591,0.7130053,1.21664,-0.6005406
43.36843157,0.04825994,-0.01706233,0.9946321,0.7130053,1.634884,-1.027747
43.37851095,0.04587364,-0.02622391,0.9950649,0.8361618,2.292126,-1.088777
43.38858986,0.05072093,-0.02713683,1.002841,0.405114,2.172627,-1.454954
43.39866924,0.05021651,-0.02233567,0.9994647,0.03564457,2.770119,-1.577013
43.40874863,0.05746729,-0.03878082,0.9906003,-0.3954031,2.531122,-1.577013
43.41882753,0.05064451,-0.03069555,0.9731364,-0.5801378,1.93363,0.07078408
43.42890692,0.05254143,-0.02639883,0.9658618,-0.02593367,1.336138,0.2538726
43.43898582,0.04870545,-0.02732422,0.9726717,1.328788,0.0814057,-0.173334
43.44906521,0.04869926,-0.0205487,0.9766058,2.006148,-0.7550829,1.230345
43.45914459,0.05647088,-0.01654397,0.999495,1.267209,-0.5160862,1.108286
43.4692235,0.0550731,-0.02468335,1.009179,0.5898488,0.6191484,0.3759317
43.47930288,0.05025914,-0.0241837,1.012592,-0.4569814,1.336138,0.3149022
43.48938274,0.05023883,-0.02228768,1.007251,-0.8264508,1.634884,-0.9056881
43.49946213,0.05020799,-0.02283891,0.9960553,-0.08751191,1.395888,-1.027747
43.50954104,0.04681335,-0.01657816,0.9951227,-0.08751191,0.49965,-1.088777
43.51962042,0.05454932,-0.01943892,0.9994789,0.3435358,0.1411549,-1.515983
43.5296998,0.05168929,-0.03246188,0.9994021,-0.2722467,0.49965,-1.699072
43.53977871,0.05214195,-0.02476648,0.9960421,-0.2722467,0.6191484,-1.577013
43.54985809,0.05407389,-0.02427379,0.9975035,0.651427,1.455637,-1.088777
43.559937,0.0487662,-0.02913326,0.9921253,-0.08751191,2.531122,-1.515983
43.57001638,0.04825884,-0.03355186,0.9794469,-0.2106684,2.949367,-1.515983
43.57757568,0.04289584,-0.0196185,0.9717497,-0.2106684,2.471373,-1.515983
43.58765507,0.04098079,-0.02395421,0.9726982,-0.08751191,1.097142,-1.638042
43.59773397,0.04340971,-0.02536918,0.9775538,0.405114,0.6191484,-2.065249
43.60781384,0.04585241,-0.0272394,0.9867863,0.5898488,0.3204024,-2.248337
43.61789322,0.0487693,-0.02815676,0.9940777,0.405114,-0.03809267,-2.065249
43.6279726,0.05309916,-0.021387,0.9965487,-0.2722467,0.1411549,-1.638042
43.63805151,0.05119325,-0.03200698,0.9950257,0.158801,-0.2770894,-1.454954
43.64813089,0.04973102,-0.02379778,0.9970231,-0.02593367,-0.2770894,0.2538726
43.6582098,0.05406661,-0.02089503,0.9980107,0.158801,-0.157591,0.009754575
43.66828918,0.0477856,-0.01850045,0.9960835,0.158801,-0.3965878,-0.05127494
43.67836857,0.05649614,-0.01600473,1.008744,0.09722282,-0.03809267,-1.027747
43.68844748,0.04781116,-0.02571923,0.9984729,-0.08751191,1.336138,-0.9667177
43.69852686,0.05167086,-0.02037859,1.003855,-0.2106684,1.873881,-1.393924
43.70860624,0.04923203,-0.01946987,0.9951033,0.2819575,1.93363,-2.309367
43.71868515,0.04777428,-0.01900969,0.9917009,0.5282705,1.276389,-2.004219
43.72876453,0.04776375,-0.01709268,0.9897661,0.405114,0.4399008,-1.332895
43.73884392,0.04970327,-0.02337251,0.98778,0.89774,0.1411549,-1.454954
43.74892283,0.04729497,-0.02724732,0.9853253,0.3435358,-0.3368386,-0.8446586
43.75900269,0.04583506,-0.02048787,0.9868273,0.89774,-0.7550829,-1.760101
43.76908207,0.05212629,-0.03013423,0.9857906,0.9593183,-0.5160862,-1.699072
43.77916145,0.04586775,-0.02720641,0.9921392,0.7745835,0.1411549,-1.271865
43.78924036,0.05358822,-0.03058542,0.990653,0.158801,0.3801516,-0.9667177
43.79931974,0.04972326,-0.02623903,0.9921421,0.03564457,0.7983959,-1.088777
43.80939865,0.05354514,-0.02146462,0.9838957,0.5898488,0.6191484,-1.94319
43.81947804,0.05067537,-0.02141579,0.9921707,1.082475,-0.2173402,-1.638042
43.82955742,0.05889018,-0.02185894,0.9975145,1.267209,-1.113578,-2.797603
43.83963633,0.05358963,-0.0218539,0.9989785,1.020896,-1.950067,-2.187308
43.84971571,0.05600799,-0.03444463,0.9901411,0.8361618,-2.487809,-1.210836
43.85979509,0.05309823,-0.02429851,0.9936112,1.513522,-3.14505,-0.417452
43.869874,0.05310892,-0.02573027,0.9960355,1.451944,-2.667057,-0.9056881
43.87995338,0.05215636,-0.02328074,1.002377,0.651427,-2.069565,-1.332895
43.89003277,0.05354825,-0.0117596,0.9936869,0.158801,-0.9343305,-0.9667177
43.89759255,0.05840158,-0.01993329,0.9970399,0.158801,-0.2173402,-0.9667177
43.90767145,0.05405545,-0.01655477,0.998037,-0.3338249,0.4399008,-0.9056881
43.91775084,0.05597762,-0.01608307,0.9960919,1.020896,0.7386467,-1.760101
43.92783022,0.04829714,-0.01407285,1.010222,0.2203793,1.754383,-0.9056881
43.93790913,0.05314922,-0.02612854,1.009658,-0.2722467,2.829868,-1.210836
43.94798851,0.0473283,-0.01893207,1.004354,-0.6417161,3.009116,-1.149806
43.95806789,0.05458186,-0.02664271,1.004301,-0.9496073,2.770119,-1.210836
43.9681468,0.0540353,-0.01853776,0.9892659,-0.7648726,1.575135,-1.94319
43.97822619,0.04149202,-0.02486137,0.9819379,-0.2106684,0.4399008,-1.699072
43.98830557,0.046297,-0.0185915,0.9814857,0.651427,-0.09784186,-1.271865
43.99838448,0.04292746,-0.02100528,0.9814736,0.89774,-0.5160862,-0.2343635
44.00846386,0.05019373,-0.02820367,0.9862905,0.3435358,-0.6355845,-0.4784815
44.01854277,0.05119465,-0.02763972,0.9994317,-0.5185596,0.49965,-0.4784815
44.02862263,0.04924225,-0.02672165,0.9921396,-0.6417161,1.21664,-0.173334
44.03870201,0.05112647,-0.009844389,0.9917539,-1.011186,1.156891,0.2538726
44.0487814,0.0525588,-0.01569331,0.9814984,0.2819575,0.7386467,0.1318136
44.0588603,0.05451291,-0.01127363,0.9941757,0.2819575,0.9776434,0.3149022
44.06893969,0.04972699,-0.01895726,0.9999722,-0.1490902,1.634884,-0.05127494
44.07901907,0.05312923,-0.01889776,1.009216,-0.1490902,1.814132,-0.4784815
44.08909798,0.0507011,-0.0194208,1.002888,0.09722282,1.21664,-1.638042
44.09917736,0.05358126,-0.01750763,0.9999781,-0.3338249,1.276389,-1.760101
44.10925674,0.05504148,-0.0320251,0.9916163,-0.02593367,1.575135,-1.577013
44.11933565,0.0501632,-0.02342014,0.9799935,-0.888029,0.9178943,0.07078408
44.12941504,0.04821159,-0.01134729,0.982988,0.03564457,0.3801516,-0.05127494
44.13949394,0.04921467,-0.02144686,0.9873055,0.7745835,1.395888,-0.5395111
44.14957333,0.04483383,-0.01329381,0.9805457,1.020896,2.172627,0.009754575
44.15965271,0.0463077,-0.015659,0.9878294,0.89774,2.351875,-1.088777
44.16973162,0.04533669,-0.01858322,0.9829463,1.328788,2.71037,-1.638042
44.17981148,0.04729513,-0.02239781,0.9897342,0.8361618,2.471373,-1.271865
44.18989086,0.04679661,-0.01661415,0.9892831,0.5282705,1.21664,-1.454954
44.19997025,0.03909117,-0.01853691,0.9912238,0.9593183,0.6191484,-2.309367
44.21004915,0.04391691,-0.02143582,0.9897427,0.89774,0.4399008,-1.577013
44.21760845,0.04537822,-0.01946375,0.9965663,0.4666923,-0.09784186,-1.271865
44.22768784,0.0458896,-0.02424992,1.002376,-0.1490902,-0.09784186,-1.393924
44.23776674,0.03216553,0.04266804,0.9857613,-1.56539,-0.7550829,-2.248337
44.24784613,0.05453551,-0.0364407,0.9794245,-0.2106684,-0.03809267,-1.210836
44.25792551,0.04440242,-0.01124519,1.000023,-0.08751191,-0.3965878,-1.393924
44.26800442,0.0463638,-0.01893279,1.004354,-0.6417161,0.49965,-2.004219
44.2780838,0.04586233,-0.0223689,0.9946017,-0.7648726,1.873881,-1.577013
44.28816366,0.04393876,-0.01847933,0.9999796,-0.5801378,1.336138,-2.736573
44.29824305,0.05610066,-0.04976272,1.008539,-0.9496073,1.515386,-0.9667177
44.30832195,0.04395411,-0.01408208,1.009252,-0.888029,2.71037,0.7421087
44.31840134,0.04341483,-0.01372016,0.9897899,-0.4569814,1.873881,0.1928431
44.32848072,0.04488606,-0.0156061,0.9965901,-0.3338249,1.21664,0.6810792
44.33855963,0.04247558,-0.02191016,0.9912007,-0.3954031,2.112878,1.596522
44.34863901,0.03762243,-0.008886959,0.9922568,-0.02593367,1.93363,0.3149022
44.3587184,0.04582916,-0.02147037,0.9839016,0.2819575,1.694634,-0.4784815
44.3687973,0.04247403,-0.02239841,0.9902246,0.09722282,1.873881,-1.332895
44.37887669,0.04250937,-0.02523194,0.9999397,-1.380655,3.068865,-1.332895
44.38895559,0.04009347,-0.03106275,0.9930935,-1.011186,3.128614,-0.7836291
44.39903498,0.0391437,-0.03297148,0.996489,-2.058016,2.71037,-0.8446586
44.40911436,0.04295334,-0.0228893,0.9887614,-2.920111,2.411624,0.1928431
44.41919327,0.03810172,-0.01374211,0.9868742,-1.996438,1.156891,1.108286
44.42927265,0.03427271,-0.01901677,0.9921979,-1.19592,-0.6355845,0.6200497
44.43935251,0.04395317,-0.02572211,0.9984758,-0.3954031,-1.233076,0.6810792
44.4494319,0.03478006,-0.02332668,0.9970374,-0.7032943,-0.8745813,0.6200497
44.4595108,0.04441869,-0.01702922,1.000475,-0.5185596,-0.7550829,-0.4784815
44.46959019,0.04204401,-0.02907532,1.00235,-0.4569814,0.0814057,-0.417452
44.47966957,0.04680684,-0.02386592,0.9863194,-1.134342,0.3801516,-0.3564225
44.48974848,0.04440612,-0.03451325,0.9804173,-0.6417161,-0.3368386,0.8031382
44.49982786,0.03903274,-0.01381337,0.9751942,0.405114,-1.890318,1.169315
44.50990677,0.04050351,-0.01715506,0.9805256,0.405114,-2.547559,0.7421087
44.51998615,0.03618761,-0.01516631,0.99076,0.4666923,-2.069565,0.7421087
44.53006554,0.03569916,-0.01711967,0.9868556,0.2203793,-1.113578,0.6810792
44.53762484,0.03570706,-0.01419317,0.992226,-0.02593367,-0.09784186,0.07078408
44.5477047,0.03770347,-0.02132054,1.009213,-0.888029,1.575135,-0.4784815
44.5577836,0.04200511,-0.02430978,0.9931331,-0.888029,2.590872,-0.6005406
44.56786299,0.03572317,-0.0248267,0.9882686,-0.2106684,1.93363,1.047256
44.57794237,0.03906576,-0.01519714,0.9854047,1.144053,0.7386467,1.535492
44.58802128,0.04249139,-0.02478568,0.994103,1.451944,0.9178943,2.511965
44.59810066,0.04151279,-0.02093738,0.9926673,1.082475,0.3204024,3.915644
44.60817957,0.03954878,-0.008406268,0.9917716,0.7130053,-1.890318,4.647998
44.61825895,0.05755019,-0.04975564,1.009512,-2.24275,-4.041288,5.929617
44.62833834,0.05403856,-0.01271175,0.9956273,2.745087,-4.579031,8.431828
44.63841724,0.05548453,-0.01077266,0.9970977,1.759835,-6.550754,9.225211
44.64849663,0.06221248,0.007123677,1.004987,2.375618,-7.626239,9.34727
44.65857601,0.07234713,-0.000126537,1.001042,4.222965,-7.865236,10.14065
44.66865492,0.07958181,0.007154625,1.007894,5.577686,-8.880973,11.54433
44.6787343,0.09601251,0.005300832,1.018089,5.885578,-9.538214,13.37522
44.68881369,0.09258037,0.01633012,1.008426,8.533442,-10.31495,16.12155
44.69889355,0.104719,-0.00481998,1.018021,9.026069,-12.46592,18.68478
44.70897245,0.1008945,-0.00038662,1.033622,6.378203,-12.82442,25.03185
44.71905184,0.1380401,-0.005181434,1.033565,3.853496,-13.12317,29.6701
44.72913122,0.1292761,-0.009246865,1.000943,2.745087,-15.09489,34.79658
44.73921013,0.1210795,-0.017008,0.9945765,1.451944,-16.94711,41.20467
44.74928951,0.1161267,0.02441107,0.9865593,2.745087,-15.75213,47.91792
44.75936842,0.1249443,-0.01747538,0.9965172,2.560353,-13.42191,52.86131
44.7694478,0.1200712,0.0027786,0.9971305,3.422448,-13.84016,57.68264
44.77952719,0.1307952,-0.0183036,1.017919,5.885578,-11.68918,58.47603
44.78960609,0.146247,-0.0172796,1.025699,4.961904,-7.805487,61.71059
44.79968548,0.1379987,-0.01690843,1.008676,4.961904,-5.116773,64.33486
44.80976486,0.1407908,0.001787581,0.9902959,4.961904,-0.9940796,68.97311
44.81984377,0.1330581,-0.01571121,0.9687846,5.823999,3.188363,72.45178
44.82992315,0.1205106,-0.0133153,0.9678355,6.747673,4.861341,74.89297
44.84000254,0.1010978,0.01647095,0.9519729,6.562938,4.861341,78.61577
44.84756231,0.1083005,-0.01510995,0.9128464,4.284543,9.28278,81.7893
44.85764122,0.08382191,-0.005180351,0.9620737,2.868244,7.908549,85.75622
44.8677206,0.08393347,-0.0398545,0.9696489,0.3435358,8.446291,89.54005
44.87779999,0.07522711,-0.03361269,0.9662872,-0.5185596,7.908549,94.42241
44.8878789,0.05357829,-0.03982018,0.9789181,0.9593183,7.968298,94.97167
44.89795828,0.06034436,-0.03347988,0.9896569,0.5898488,8.267043,96.37535
44.90803766,0.06034978,-0.03395314,0.9911138,1.328788,10.17902,100.3423
44.91811657,0.04258266,-0.04010677,1.012015,0.09722282,12.86773,102.7835
44.92819595,0.04098251,-0.005523674,0.9898415,-0.2106684,12.74823,107.6048
44.93827534,0.03033554,0.007965462,0.9889583,0.89774,10.89601,110.7783
44.94835424,0.03900193,0.01618522,0.9914346,2.560353,6.41482,113.8298
44.95843411,0.03463009,0.03066153,0.9934724,4.961904,4.323598,114.0129
44.96851349,0.03415622,0.03940768,1.004231,4.346121,4.622344,114.9894
44.9785924,0.0336783,0.03990157,1.006181,4.346121,8.386542,118.7122
44.98867178,0.01632943,0.02973134,1.001267,2.006148,9.820522,121.8857
44.99875116,-0.003475319,0.03692037,0.9964592,1.451944,7.908549,123.7776
45.00883007,-0.007357643,0.0349255,0.9862312,0.9593183,3.726106,123.9607
45.01890945,-0.02091236,0.05614051,0.9873437,0.5898488,0.0814057,127.0122
45.02898884,-0.01266377,0.04364707,0.9935875,-0.2722467,-2.009816,125.0592
45.03906775,-0.005411439,0.04078295,0.9974574,-1.873281,-1.292826,126.3408
45.04914713,0.02125588,-0.006895208,1.004447,-4.213254,0.3204024,127.1342
45.05922651,0.001757023,0.01979659,0.9559622,-7.230588,-0.03809267,128.721
45.06930542,-0.01082951,0.004651483,0.9257098,-9.262671,-2.846304,129.2092
45.0793848,-0.02440267,0.02049274,0.9155975,-8.831622,-5.475268,128.721
45.08946419,-0.02791012,0.05318137,0.8992537,-5.013772,-6.311757,128.9041
45.09954405,-0.006042816,0.01039712,0.9184418,-3.104846,-7.626239,125.7916
45.10962296,-0.01631133,0.07409479,0.9266222,0.9593183,-9.478465,124.632
45.11970234,-0.01769809,0.07858693,0.9514679,5.577686,-9.77721,124.2658
45.12978125,0.02635704,0.07122754,1.003944,8.96449,-10.13571,122.9232
45.13986063,-0.002117156,0.1084987,1.029983,11.05815,-10.13571,121.3364
45.14994001,0.000997004,0.07066685,1.072573,12.72076,-10.8527,120.6651
45.16001892,0.02176501,0.06832505,1.081302,12.35129,-11.33069,119.2004
45.16757822,0.02274578,0.06254175,1.081752,10.93499,-10.8527,118.407
45.1776576,0.02566389,0.03495658,1.065524,7.363455,-9.000471,119.5055
45.18773699,0.01693209,0.02271686,1.036747,6.439782,-7.685989,115.6607
45.1978159,0.006610376,0.04217271,0.9867511,6.624516,-6.909249,110.5342
45.20789576,0.004637802,0.01492225,0.9471714,6.993986,-5.774014,105.7129
45.21797514,-0.005116279,0.02243914,0.9160811,11.42762,-4.758278,100.9526
45.22805405,0.00807007,-0.03053587,0.9259683,12.53603,-4.519281,96.37535
45.23813343,0.005207581,-0.02513729,0.941575,12.72076,-0.8745813,92.53049
45.24821281,0.009117166,-0.04248048,0.9438998,13.33655,3.785855,87.28196
45.25829172,0.00042491,-0.04008769,0.9419745,12.78234,6.713565,82.52165
45.26837111,-0.006849715,-0.01545026,0.9499155,13.82917,8.446291,78.98194
45.27845049,-0.002953752,-0.0143959,0.9640307,15.98441,11.613,75.86944
45.2885294,-0.00672154,-0.01565959,0.9941961,17.77018,13.34572,69.94958
45.29860878,-0.004724036,-0.01066168,1.022449,22.57328,14.54071,62.565
45.30868816,-0.01424688,-0.007981701,1.067241,21.77276,15.49669,59.51353
45.31876707,0.001284428,-0.01115101,1.09884,17.95491,16.51243,59.14735
45.32884645,0.001233607,0.004257059,1.09504,14.99916,17.46842,59.20838
45.33892536,0.005071456,0.01100546,1.094105,12.22814,16.45268,56.58411
45.34900522,0.008789667,0.03155923,1.064057,10.31921,15.0187,55.05837
45.35908461,0.002462934,0.03482534,1.04705,9.087646,9.99977,54.99734
45.36916399,0.008739753,0.02369324,1.039678,8.102395,4.084601,56.46205
45.3792429,0.01312013,0.01844869,1.048889,8.225552,-1.113578,52.86131
45.38932228,0.01309053,0.02177947,1.04161,9.949742,-4.101037,47.49072
45.39940167,0.01409825,5.19E-05,1.037098,10.25763,-4.997275,40.89953
45.40948057,0.01997232,-0.02400243,1.045706,7.54819,-2.846304,39.12967
45.41955996,0.02772888,-0.04524574,1.040705,3.853496,0.9178943,37.35981
45.42963934,0.02859745,-0.0401172,1.012025,0.2203793,2.949367,35.89511
45.43971825,0.00867337,-0.02688083,0.9712453,-0.8264508,1.395888,32.53848
45.44979763,0.003784552,-0.02072312,0.9537683,-0.3338249,-0.5758353,28.32745
45.45987701,0.00567557,-0.02613742,0.9357291,0.5898488,-1.053829,29.30392
45.46995592,0.00555129,-0.005068295,0.9115264,1.882992,-0.9940796,30.58554
45.48003531,0.002202988,0.002261935,0.9276317,3.668761,-1.233076,31.80613
45.48759508,0.000817919,-0.005365199,0.942185,4.284543,-1.71107,32.90466
45.49767447,-0.005789898,-0.01378985,0.9844745,4.346121,-1.830568,31.37892
45.50775337,0.0233685,-0.03413919,1.043696,2.621931,2.351875,29.48701
45.51783276,0.02303981,-0.07260273,1.062441,0.03564457,6.474569,28.08333
45.52791214,0.02006916,-0.04804004,1.057726,-3.166424,7.13181,22.6517
45.53799105,0.01230266,-0.03603148,1.050992,-5.567976,7.8488,19.11199
45.54807043,-0.0013576,-0.01795292,1.01267,-5.506398,7.370807,12.76492
45.55814982,-0.005314006,-0.01622774,0.9800798,-3.535894,6.295321,6.295794
45.56822872,-0.02032384,0.004968192,0.9782735,-2.673798,5.63808,4.525939
45.57830811,-0.01397186,-0.01957998,0.9849322,-2.735376,3.785855,2.511965
45.58838701,-0.01724782,-0.04749312,0.9944977,-4.213254,2.172627,0.6810792
45.5984664,-0.0123852,-0.05710158,0.9997883,-3.905363,-0.09784186,-2.187308
45.60854626,-0.01149634,-0.06259757,0.9686109,-6.676384,-1.830568,-3.285839
45.61862564,-0.00434969,-0.04289782,0.956073,-6.614806,-4.519281,-4.38437
45.62870455,-0.01605892,0.004809478,0.951992,-5.260085,-6.789751,-5.849078
45.63878393,-0.008340124,0.03100679,0.9764759,-4.02852,-9.299217,-8.778495
45.64886332,0.000888803,0.05055262,1.016977,-2.365907,-9.538214,-11.46379
45.65894222,0.01793938,0.03444757,1.062121,-2.981689,-7.506741,-14.08806
45.66902161,0.02963578,0.01629259,1.088279,-5.506398,-6.371506,-13.29468
45.67910099,0.04074593,0.004217582,1.083818,-8.585309,-6.371506,-13.23365
45.6891799,0.03142249,0.01162386,1.034722,-10.61739,-8.880973,-12.56232
45.69925928,0.04149421,-0.004975082,1.00055,-8.462152,-9.299217,-14.14909
45.70933819,0.03321274,-0.01679817,0.9610688,-6.922697,-7.745738,-16.83439
45.71941757,0.02481396,-0.007537141,0.8998178,-5.444819,-6.670252,-16.83439
45.72949696,0.006853286,0.004319896,0.8697335,-3.166424,-7.088496,-17.44469
45.73957586,0.008788781,-0.005847941,0.8628576,-1.319077,-6.132509,-15.85792
45.74965572,0.01311213,-0.002001684,0.8604446,0.158801,-4.220535,-16.04101
45.75973511,0.01655668,-0.009124974,0.8779169,1.267209,-2.189063,-17.74983
45.76981449,0.02094466,-0.003685003,0.8993577,0.5898488,-0.3965878,-15.55277
45.7798934,0.02301034,-0.01648243,0.9352879,0.2203793,1.754383,-12.68438
45.78997278,0.024057,-0.008061494,0.9713477,-0.5801378,2.829868,-10.30423
45.79753208,0.03136187,-0.003538881,1.00008,-1.56539,3.367611,-8.412318
45.80761099,0.0356823,0.02600168,1.019721,-2.489064,4.801591,-5.60496
45.81769037,0.03563567,0.045783,1.0213,-2.981689,5.757578,-4.811577
45.82776976,0.04578134,0.04680005,1.028598,-0.3954031,5.339334,-3.835104
45.83784866,0.05068007,0.03678433,1.046052,-0.9496073,4.2041,-1.577013
45.84792805,0.05700307,0.01750793,1.04739,-0.2722467,2.112878,-0.6005406
45.85800791,0.06374495,0.01797722,1.044468,0.5282705,0.2009041,0.1318136
45.86808729,0.06566617,0.002444637,1.027827,0.158801,-2.189063,1.718581
45.8781662,0.056891,0.00708373,0.9991516,0.158801,-4.519281,0.9251972
45.88824558,0.05107828,0.000720165,0.9845189,0.8361618,-6.013011,0.9251972
45.89832497,0.03944401,-0.004752194,0.9587041,2.437196,-6.013011,-0.4784815
45.90840387,0.01766673,0.01010044,0.9456722,4.346121,-4.758278,-1.332895
45.91848326,0.01965027,-0.002388677,0.9533807,4.838748,-2.129314,-1.515983
45.92856264,0.02315123,-0.01181526,0.9883572,4.099808,3.128614,-2.004219
45.93864155,0.01836438,-0.01804614,0.9951357,2.437196,8.028047,-1.94319
45.94872093,0.01493953,-0.001667093,0.9928046,0.89774,10.59726,-2.675544
45.95879984,0.01980758,-0.0117488,0.9995523,0.7130053,11.07526,-3.713045
45.96887922,0.01982044,-0.0107513,1.004911,1.144053,8.864535,-5.543931
45.97895861,0.01209438,-0.01611281,0.9966121,2.252461,5.578331,-7.985111
45.98903751,0.01985158,-0.02232235,1.005328,1.821414,1.814132,-8.046141
45.99911737,0.01157851,-0.007941885,0.9922825,2.006148,-0.9343305,-8.046141
46.00919676,0.004408618,-0.01750834,1.005855,2.190883,-3.14505,-8.229229
46.01927614,0.000121388,-0.01303335,1.02827,0.7130053,-2.129314,-5.727019
46.02935505,0.003474661,-0.009199813,1.023911,-0.3338249,-0.7550829,-6.398344
46.03943443,0.002023414,-0.01454465,1.017554,-0.7032943,-0.2173402,-5.849078
46.04951382,0.01169846,-0.01641248,1.026294,-1.56539,0.6191484,-3.896134
46.05959272,0.02612393,-0.003884132,1.022953,-1.134342,0.3801516,-2.126278
46.06967211,0.0372062,-0.01165487,1.012678,-0.8264508,-0.6355845,-3.346868
46.07975102,0.02605139,-0.008404345,0.9937284,0.158801,-2.487809,-3.407898
46.0898304,0.02794723,-0.003140123,0.9869463,1.451944,-3.682793,-1.515983
46.09990978,0.03180056,-0.004601996,0.9840147,1.575101,-5.116773,-1.699072
46.10998869,0.02458916,-0.000195148,0.9957259,2.006148,-5.654516,-0.6615701
46.11754894,0.03134188,0.003691897,0.9996372,1.144053,-5.594767,-2.126278
46.12762785,0.01541947,0.0128758,1.005058,-0.02593367,-4.818027,-3.896134
46.13770723,0.02456158,0.01380815,0.9987307,-1.319077,-3.742542,-4.750547
46.14778662,0.01972483,0.01280406,0.9928888,-2.181172,-3.682793,-4.201282
46.15786552,0.02552344,0.009923862,0.9943267,-2.181172,-2.786555,-5.055695
46.16794491,0.03175564,0.01615283,0.9870605,-1.56539,-2.009816,-4.689517
46.17802382,0.02358499,0.006507672,0.9879814,-1.257499,-1.531822,-4.38437
46.1881032,0.02509712,-0.01129258,0.9946849,-0.9496073,-1.472073,-3.041721
46.19818258,0.02609928,-0.01557514,1.003904,-1.011186,-0.8745813,-2.614514
46.20826149,0.02990288,-0.006960711,0.9927611,-0.8264508,-0.09784186,-3.224809
46.21834087,0.02360482,-0.005572617,0.9840152,-0.5185596,-0.03809267,-1.760101
46.22842026,0.01386765,0.01992255,0.9749317,-1.011186,-1.113578,-1.699072
46.23850012,0.01393102,0.008905737,0.9870302,-1.257499,-0.8148321,-1.577013
46.24857903,0.01484438,0.01025124,0.9704928,-1.56539,-1.113578,-2.004219
46.25865841,0.02355399,0.00547119,0.9762964,0.2203793,-0.9343305,-1.271865
46.26873779,0.01966656,0.01801286,0.9773487,0.2203793,-0.5160862,-0.8446586
46.2788167,0.02500617,0.01372753,0.9855911,0.651427,-0.3965878,-1.210836
46.28889608,0.03858212,-0.002107722,0.9966769,0.405114,0.0814057,-1.454954
46.29897547,0.044896,-0.002007073,1.012244,-0.3954031,1.515386,-1.577013
46.30905438,0.04292003,-0.005018989,0.9932494,-1.011186,2.590872,-0.7225996
46.31913376,0.04181638,0.02183644,0.9690825,-0.7032943,1.455637,-1.088777
46.32921267,0.03699064,0.02473535,0.9705637,0.7745835,-0.6355845,1.535492
46.33929205,0.04615337,0.02474218,0.9705567,1.94457,-2.189063,2.023729
46.34937143,0.05055296,0.01856912,0.9856009,1.821414,-3.443796,3.18329
46.35945034,0.04432913,0.003629633,0.9879481,0.651427,-2.308562,2.145788
46.36952972,0.04822044,0.003219239,0.9991348,0.8361618,-0.9940796,3.915644
46.37960959,0.04433471,0.003641629,0.9898946,0.5898488,-0.2770894,3.06123
46.38968897,0.04627858,0.006584565,0.9976968,1.205631,-0.157591,3.305348
46.39976788,0.05452004,-0.002044864,1.004937,1.267209,0.0814057,2.572994
46.40984726,0.05014231,0.007084691,1.00013,1.451944,0.9178943,2.145788
46.41992664,0.03755983,0.01328463,0.990445,1.759835,0.4399008,1.718581
46.43000555,0.03613277,0.01381079,0.9977485,1.513522,0.4399008,2.939171
46.43756485,0.04000563,0.0123909,1.00163,1.94457,1.395888,2.450935
46.44764423,0.0351444,0.01763809,0.9929063,2.621931,2.112878,1.108286
46.45772314,0.03322966,0.01427289,0.9948338,2.129305,1.515386,0.7421087
46.46780252,0.04247297,-0.003973869,1.006395,1.082475,1.21664,0.4979907
46.47788239,0.042989,-0.01165955,1.011214,0.4666923,1.873881,-0.3564225
46.48796177,0.02745197,0.008469549,0.9928566,1.205631,1.873881,0.07078408
46.49804068,0.0327457,0.004570506,0.9855296,0.651427,0.1411549,-0.7836291
46.50812006,0.02647213,0.008435839,0.9875043,0.158801,0.1411549,-0.9667177
46.51819944,0.02740998,0.01662284,0.9856068,0.5282705,-0.8745813,-1.332895
46.52827835,0.02071056,0.005091749,0.9933279,0.03564457,-0.6355845,-1.088777
46.53835774,0.02994272,0.004278039,1.016673,-0.3954031,1.575135,0.1928431
46.54843664,0.03237116,-0.002956938,1.016141,-1.257499,3.367611,-0.4784815
46.55851603,0.03622637,0.001404201,1.019084,-1.380655,4.443097,-0.6005406
46.56859541,0.03958181,0.003302736,1.01374,-0.888029,4.144351,-1.454954
46.57867432,0.03904811,0.00804092,1.000144,-0.8264508,2.232376,-0.295393
46.5887537,0.04480053,0.01330502,0.9928727,0.2203793,-0.09784186,0.1928431
46.59883308,0.03758369,0.005092344,0.9913684,0.158801,-2.009816,0.1928431
46.60891199,0.04575883,0.01135274,0.9889671,1.144053,-4.519281,-0.173334
46.61899138,0.05206184,0.003671379,0.9937817,0.2819575,-5.594767,-0.1123045
46.62907124,0.03560697,0.01274695,0.9816841,0.3435358,-6.252008,1.657551
46.63915062,0.0341297,0.02625792,0.9832271,1.082475,-6.909249,0.8641677
46.64922953,0.04046123,0.01621329,0.9958133,1.267209,-5.236272,1.77961
46.65930891,0.04006902,0.005738349,1.017648,0.651427,-1.113578,1.291374
46.66938829,0.04302697,-0.006243809,1.029252,-0.2722467,4.92109,1.291374
46.6794672,0.03521693,0.009065527,1.010372,-1.873281,9.641274,2.328876
46.68954659,0.03901417,0.01524171,0.9948353,-1.996438,12.27024,2.572994
46.69962549,0.03268589,0.01801957,0.9768522,-1.934859,12.44949,2.206817
46.70970488,0.03800983,0.004002237,0.9709237,-1.319077,10.95576,2.695053
46.71978426,0.0380134,0.00643449,0.9743447,-0.6417161,7.430556,3.000201
46.72986317,0.03846713,0.008798123,0.9665729,0.09722282,3.42736,2.267847
46.73994255,0.03515834,0.000211044,0.982095,-0.5801378,1.097142,2.572994
46.75002193,0.0337226,0.004112966,0.9894189,-0.9496073,0.1411549,2.756083
46.75758171,0.02840592,0.001658761,0.9830821,-1.503812,-0.9940796,3.610496
46.7676611,0.03322346,0.007955626,0.9870096,-0.7032943,-2.248812,3.427408
46.77774,0.02019344,0.009380669,0.9850817,-0.888029,-2.129314,3.976673
46.78781939,0.01925853,-0.002679344,0.9845227,0.4666923,-2.487809,2.939171
46.79789829,0.02220751,-0.003527722,1.003007,0.7745835,-1.233076,1.84064
46.80797768,0.01788789,-0.004456476,1.00933,-0.2106684,1.93363,1.352404
46.81805706,0.02366108,-0.003996898,1.004949,-1.19592,5.279585,1.413433
46.82813597,0.02076402,-0.00206705,1.00545,-1.442233,6.175823,0.6810792
46.83821535,0.01353044,-0.005951456,1.002025,-2.427485,7.13181,1.474463
46.84829474,0.02121465,-0.000679918,0.9957255,-2.550642,7.072061,1.901669
46.85837364,0.01832937,-0.009877851,0.9903191,-1.934859,6.653816,1.657551
46.8684535,0.01248815,0.007943153,0.9875121,-1.319077,4.263849,2.511965
46.87853289,0.01684373,0.003615122,0.9889423,-0.2722467,2.590872,1.901669
46.88861227,0.01202047,0.009913788,0.994337,-0.1490902,0.9178943,0.9251972
46.89869118,0.01493427,0.008019931,0.999676,0.5898488,-0.3368386,0.4979907
46.90877056,0.004318139,0.01769604,1.006069,-0.02593367,-0.5758353,0.5590202
46.91884947,0.01019531,-0.00101749,1.020549,-0.6417161,2.112878,0.2538726
46.92892885,0.007265238,-0.002068128,1.00692,-1.319077,4.024852,0.5590202
46.93900824,-2.96E-05,0.007493534,0.9943315,-1.811703,3.726106,-1.027747
46.94908714,-0.004832518,-0.001196594,0.9933093,-1.134342,2.949367,-1.210836
46.95916653,-0.0039097,0.01229218,0.9909574,-2.058016,3.068865,-0.9667177
46.96924591,-0.00299836,0.01605794,0.9758945,-1.380655,1.694634,-1.699072
46.97932482,0.006696359,0.005988834,0.9840983,-0.6417161,0.5593992,-2.004219
46.9894042,0.01449742,-0.00255098,1.005938,-1.442233,1.097142,-0.9667177
46.99948406,0.01543511,0.000786513,0.9996318,-0.7032943,0.9776434,-1.088777
47.00956345,0.01151234,0.01179745,0.9870496,-0.8264508,-1.113578,-1.149806
47.01964235,0.02070002,0.007008758,0.991393,-0.2722467,-3.204799,-1.88216
47.02972174,0.02164561,0.01327275,0.9904571,-0.08751191,-3.264549,-1.149806
47.03980112,0.01201039,0.000193774,0.9821126,0.89774,-3.623044,-1.88216
47.04988003,0.01588016,-0.00220261,0.9840416,0.9593183,-5.654516,-0.6615701
47.05995941,0.01687179,0.004160356,0.9991646,0.5898488,-5.774014,0.009754575
47.07003832,0.02173394,-0.002539585,1.006906,-1.134342,-2.846304,1.047256
47.07759762,0.01688387,-0.001632664,0.9981562,-1.996438,-0.7550829,0.9862267
47.087677,0.01106031,0.001678799,0.9884484,-1.811703,0.02165651,0.7421087
47.09775686,0.0226349,0.003628437,0.9903978,-1.380655,1.575135,0.7421087
47.10783625,0.02554514,0.003666585,0.9962351,-0.5801378,3.307862,0.8031382
47.11791515,0.02409654,0.01093527,1.00212,-0.7032943,4.801591,-0.1123045
47.12799454,0.02510689,-0.006907325,1.002011,-0.7648726,6.175823,-0.9667177
47.13807392,0.02020661,0.006984406,0.9875003,0.03564457,6.773315,-1.271865
47.14815283,0.02255385,0.01169776,0.9695224,0.405114,4.323598,-1.454954
47.15823221,0.02168791,-0.007002816,0.9869277,-0.3338249,1.93363,-0.1123045
47.16831112,0.02069427,-0.002217007,0.9811181,-0.5801378,0.6788976,0.1318136
47.1783905,0.01054722,0.005491466,0.9811727,-0.2106684,-0.7550829,-0.295393
47.18846989,0.008151009,0.004552156,0.9855483,-0.2722467,-1.233076,-0.295393
47.19854879,0.0101296,0.00272056,1.001108,-0.3338249,-0.09784186,-0.6005406
47.20862818,0.01109131,0.002715281,1.000133,-0.5801378,0.1411549,-0.2343635
47.21870756,0.01019158,-0.008299252,1.012719,-0.6417161,0.4399008,-0.295393
47.22878647,0.01015827,-0.003521721,1.005449,0.09722282,1.694634,-0.1123045
47.23886633,0.009201982,-0.003989697,1.00788,0.2819575,2.411624,-0.4784815
47.24894571,0.008194095,0.004159878,1.000144,-0.3338249,1.873881,-0.6615701
47.2590251,0.01492512,0.005575681,0.9943084,-0.4569814,1.694634,-1.577013
47.269104,0.01350859,-0.00017943,0.9996274,-0.4569814,1.634884,-2.675544
47.27918339,0.0101141,0.002202319,0.9952649,-0.7648726,0.6788976,-1.393924
47.2892623,0.01062021,-0.005989605,0.996188,-1.503812,-1.113578,-1.271865
47.29934168,0.01448487,-0.002577972,1.001559,-1.688546,-1.651321,-1.515983
47.30942106,0.000985773,-0.003549551,1.00205,-1.873281,-1.412324,-1.332895
47.31949997,0.01019716,-0.008287256,1.014666,-2.61222,-0.9343305,-2.553485
47.32957935,0.003352238,0.008963803,0.9977442,-2.796955,-0.03809267,-1.760101
47.33965874,-0.001024576,0.01227634,0.9880354,-1.811703,-0.8745813,-3.041721
47.34973764,0.01061215,-0.000672838,0.9981668,-1.442233,-0.9343305,-3.10275
47.35981703,0.008712759,-0.004005053,1.005447,-1.811703,0.5593992,-2.126278
47.36989689,0.004897224,-0.01506973,1.010249,-2.735376,0.7983959,-2.065249
47.37997627,0.001450043,-0.003102929,0.9962125,-3.351159,0.5593992,-1.94319
47.3875351,0.000929519,0.003603249,0.9889544,-2.981689,0.4399008,-2.187308
47.39761448,0.001432843,-0.000230413,0.9928238,-3.289581,0.6788976,-2.248337
47.40769386,0.004304333,0.005058521,0.9899339,-2.981689,0.9178943,-2.797603
47.41777277,0.006739437,-0.003131961,0.9908556,-1.934859,1.21664,-2.858632
47.42785215,0.00530974,-0.002126549,0.9976754,-1.688546,0.7983959,-2.736573
47.43793154,0.01207951,-0.001597274,1.004486,-2.365907,0.02165651,-1.88216
47.44801045,0.007249272,-0.004042122,0.9996087,-2.24275,-0.5160862,-2.126278
47.45808983,0.004330521,-0.000219257,0.9942814,-2.489064,-1.71107,-2.492455
47.46816921,0.002821331,0.01807224,0.9890408,-3.166424,-3.623044,-3.041721
47.47824907,0.006233332,0.009424219,0.9938518,-2.920111,-2.726806,-1.515983
47.48832798,0.003875707,0.002748872,1.006465,-2.489064,-1.830568,-0.295393
47.49840736,-0.004847703,0.003619925,0.9923653,-1.626968,-1.770819,1.413433
47.50848675,0.009591717,0.011814,0.9899709,-3.535894,-2.965803,0.009754575
47.51856566,0.007092918,0.02568654,0.9720522,-2.119594,-2.189063,-1.88216
47.52864504,0.007615918,0.0136516,0.9753851,-0.4569814,-0.9343305,-2.553485
47.53872395,0.00913875,-0.001216152,0.9884323,1.267209,0.7983959,-4.689517
47.54880333,0.002431276,-0.00743048,0.9981321,0.7745835,2.650621,-4.506429
47.55888271,0.005792296,-0.005519948,0.9947348,0.158801,3.068865,-3.835104
47.56896162,0.008205401,-0.004059397,0.9966883,-0.7032943,3.845605,-3.224809
47.579041,0.006764071,-0.01326225,0.9903075,-0.888029,4.2041,-2.553485
47.58912039,0.000906735,0.00209951,0.9796996,-1.072764,3.666357,-1.760101
47.5991993,0.004818958,-0.01135867,0.9864275,-0.1490902,3.546859,-2.187308
47.60927916,0.01011874,-0.00506145,0.9903547,-0.5185596,2.770119,-1.88216
47.61935854,0.01447509,-0.020056,0.9824744,0.2819575,1.634884,-2.248337
47.62943792,0.01109392,-0.01522101,0.9849394,0.9593183,0.9776434,-0.6615701
47.63951683,0.009126653,-0.008515909,0.9776825,0.9593183,0.2009041,-1.332895
47.64959621,0.01113468,-0.02289205,0.9921921,1.020896,0.1411549,-0.6615701
47.65967512,0.008208186,-0.008417659,0.993742,1.267209,0.0814057,-0.173334
47.66975451,0.009227237,-0.01217898,1.00929,0.2819575,1.276389,-1.393924
47.67983389,0.01262855,-0.01939524,1.011677,-1.072764,2.829868,-0.2343635
47.6899128,0.0120806,-0.002564776,1.003994,-1.626968,3.248113,-0.6615701
47.69999218,0.02277451,-0.03486473,1.004276,-2.550642,3.068865,-0.8446586
47.70755196,0.001408512,0.002141858,0.9865121,-1.996438,2.351875,-0.7225996
47.71763134,0.007730118,-0.01277328,0.9912828,-2.427485,0.3204024,-1.027747
47.72771072,0.003351906,-0.013828,0.977168,-2.304329,-0.5160862,-1.027747
47.73778963,0.003794803,0.002574923,0.9782404,-0.5801378,-1.591572,-1.027747
47.74786902,0.002376249,-0.01385271,0.9732757,0.03564457,-1.770819,1.230345
47.75794792,0.01688696,-0.005020424,0.9961891,1.513522,-2.009816,1.962699
47.76802731,7.18E-05,-0.02865736,0.9970317,-0.5185596,-2.965803,0.9862267
47.77810669,-0.000437731,-0.009319657,1.004935,-0.2722467,-1.890318,2.450935
47.7881856,-0.01698248,0.02380852,0.9832515,0.9593183,-1.173327,1.77961
47.79826498,-0.003892956,0.01669243,1.000716,-1.934859,-0.157591,3.244319
47.80834436,0.004418227,-0.0179726,1.008772,-1.257499,1.276389,2.084758
47.81842327,0.002413924,-0.000678955,0.9981731,-0.5185596,1.395888,1.169315
47.82850266,-0.000916106,-0.01028152,1.005417,0.89774,0.5593992,0.1928431
47.83858252,0.002922205,-0.006441623,1.00203,1.451944,0.49965,-1.149806
47.8486619,0.005387838,-0.01941564,1.009249,0.651427,1.634884,-1.393924
47.85874081,0.0039431,-0.02620123,1.003856,0.2203793,1.99338,-0.5395111
47.86882019,0.001943452,-0.003078576,1.000105,-0.1490902,1.634884,-1.271865
47.87889957,-0.000497081,0.001220901,0.9938072,0.03564457,1.097142,-1.638042
47.88897848,0.004841894,-0.01373394,0.9922525,0.3435358,0.6788976,-2.309367
47.89905787,0.009698167,-0.01705212,1.000988,1.144053,0.2606533,-2.004219
47.90913677,0.006285082,-0.007436599,0.9966693,0.651427,0.02165651,-1.88216
47.91921616,0.01547121,-0.01271354,1.000036,0.09722282,0.3801516,-1.515983
47.92929554,0.01165692,-0.01989621,1.008755,-0.888029,1.575135,-0.1123045
47.93937445,0.01456126,-0.02084056,1.011667,-1.19592,2.232376,-0.6615701
47.94945383,0.01793173,-0.02424379,1.006777,-1.811703,2.889617,-0.3564225
47.95953322,0.01643741,-0.01610358,0.997582,-1.442233,3.307862,-0.3564225
47.96961308,0.009145249,-0.01138543,0.9815579,-0.5801378,2.172627,-0.05127494
47.97969198,0.01058363,-0.002673824,0.9864759,0.03564457,-0.157591,-0.6615701
47.98977137,0.01254115,-0.005035659,0.9942458,0.7130053,0.5593992,-0.295393
47.99985075,0.006253625,-0.001200316,0.9913542,0.3435358,2.172627,-0.5395111
48.00992966,0.006770108,-0.02052302,0.9858838,0.7130053,2.411624,-0.6005406
48.02000904,0.0140494,-0.02623866,0.9965492,-0.1490902,2.411624,1.230345
48.02756834,0.01307344,-0.02286962,0.9955971,-0.6417161,2.351875,2.328876
48.03764725,0.01885841,-0.0248093,0.9931478,-0.7032943,1.814132,2.267847
48.04772663,0.02164513,-0.005640036,0.9733107,-0.8264508,1.694634,2.328876
48.05780602,0.01729932,-0.001291012,0.975287,-0.9496073,0.4399008,1.901669
48.06788588,0.01392094,-0.000814278,0.9748058,0.405114,-0.9940796,2.023729
48.07796478,0.01440768,-0.004198678,0.973325,1.267209,-2.726806,1.596522
48.08804417,0.01202945,-0.001219992,0.9874567,0.89774,-3.14505,1.77961
48.09812355,0.01640502,-0.0127788,0.9893297,0.09722282,-2.189063,1.84064
48.10820246,0.008706242,-0.01129281,0.996644,-0.3338249,-1.113578,2.328876
48.11828184,0.00966392,-0.01082184,0.9946996,-0.7648726,-0.2770894,1.657551
48.12836075,0.00723563,-0.007465871,0.9918021,-0.3954031,0.7386467,2.511965
48.13844013,0.008152555,0.000676146,0.9826051,0.651427,0.8581451,1.230345
48.14851952,0.0047999,-0.005580651,0.9850028,2.067727,0.7983959,0.6200497
48.15859842,-0.001471187,0.00168444,0.9908912,2.314039,1.097142,0.7421087
48.16867781,-0.003872668,0.001703634,0.9942994,2.190883,0.9178943,-0.6005406
48.17875719,0.001520852,-0.02574177,1.000455,1.636679,1.097142,-0.7225996
48.1888361,-0.008620003,-0.0160803,1.004414,1.390366,0.3204024,0.2538726
48.19891596,-0.006703561,-0.01610585,1.000033,0.09722282,0.3204024,0.1318136
48.20899534,6.00E-05,-0.01752957,1.002939,-0.9496073,0.5593992,0.6810792
48.21907473,-0.005306868,-0.006998972,0.9908414,-0.2722467,-0.456337,1.535492
48.22915363,-0.006793906,-0.002237516,0.9811391,0.5898488,-2.547559,1.77961
48.23923302,-3.33E-05,0.004576031,0.9904209,1.082475,-3.324298,0.4979907
48.2493124,0.001963442,-0.005945096,1.004467,2.314039,-2.906054,0.1318136
48.25939131,-0.000407976,-0.01216518,1.012704,1.821414,-1.173327,0.8641677
48.26947069,0.001062639,-0.01162787,1.021465,0.5898488,-0.09784186,0.8031382
48.2795496,0.009730409,-0.01213363,1.016589,-0.2722467,0.8581451,0.5590202
48.28962898,0.004365696,-0.007902295,0.9995875,-0.888029,1.93363,0.3759317
48.29970837,0.006317623,-0.01464039,1.001492,-1.011186,1.515386,-0.295393
48.30978727,0.004884044,-0.02140198,0.9999918,-1.380655,0.8581451,-0.6615701
48.31986666,0.005786241,-0.01571622,0.9834807,-1.072764,0.6788976,-0.2343635
48.32994652,0.001931036,-0.02007735,0.9805375,-0.2106684,-0.5758353,1.047256
48.33750582,-0.00967811,-0.01240295,0.9752402,-0.7032943,-1.71107,1.535492
48.3475852,-1.27E-05,-0.01817078,0.9771442,-0.5185596,-2.786555,1.962699
48.35766411,-0.00966262,-0.02061323,0.9732438,0.3435358,-2.965803,2.756083
48.36774349,-0.007262215,-0.0109364,0.9781669,0.4666923,-3.14505,2.450935
48.3778224,-0.004309061,-0.0205043,0.990272,0.7745835,-1.830568,1.77961
48.38790178,-0.01105667,-0.01710658,0.9946774,0.651427,-1.173327,0.8641677
48.39798117,-0.001396964,-0.01464314,1.001984,-0.4569814,-0.03809267,0.1928431
48.40806007,-0.002851303,-0.01223596,1.001513,-1.257499,1.455637,0.8641677
48.41813946,-0.004325162,-0.00114225,1.002068,-1.072764,1.93363,0.1928431
48.42821932,-0.003357412,-0.004044039,1.00059,-0.5185596,2.471373,-0.1123045
48.4382987,0.009212666,-0.01414998,1.002466,1.144053,2.650621,0.3759317
48.44837761,0.01114383,-0.01171928,1.005399,1.698257,3.42736,0.1318136
48.45845699,0.00727623,-0.01562217,0.9985653,1.267209,3.666357,0.4369612
48.46853638,0.004818958,-0.01135867,0.9864275,0.9593183,2.770119,0.5590202
48.47861528,0.01544765,-0.01664353,0.9883338,0.89774,1.634884,0.3759317
48.48869467,0.01542254,-0.01233326,0.9834938,0.7130053,0.3204024,0.4979907
48.49877358,0.00819191,-0.01136215,0.9854517,1.020896,-0.9343305,0.07078408
48.50885296,0.007257634,-0.01275265,0.9946897,1.144053,-1.233076,0.1928431
48.51893234,0.007744845,-0.01031703,0.9985971,0.9593183,-0.456337,0.8031382
48.52901125,0.003395151,-0.009370765,0.996173,0.405114,0.6191484,0.009754575
48.53909063,-1.99E-05,0.002665018,0.993329,-0.08751191,1.814132,0.2538726
48.54917002,0.01496432,-0.006947871,0.9966656,-1.257499,2.590872,-0.1123045
48.55924988,0.01403438,-0.01657263,1.000014,-0.888029,3.905354,-0.2343635
48.56932879,0.006791342,-0.01950753,0.9941624,-1.011186,4.383348,-0.295393
48.57940817,0.005780822,-0.0108787,0.9859431,-1.072764,4.084601,0.5590202
48.58948755,-0.001050617,0.009310855,0.9763386,-0.8264508,2.949367,0.5590202
48.59956646,0.006226656,-0.002713052,0.9806396,0.5898488,1.99338,0.4979907
48.60964584,0.000939901,0.001200987,0.9903997,1.144053,1.276389,1.169315
48.61972523,-0.001434613,-0.00163134,1.000603,0.8361618,0.8581451,0.9862267
48.62980413,-0.000453844,-0.003050383,1.004974,-0.08751191,1.455637,0.7421087
48.63988352,-0.001885406,-0.007867984,1.005919,-1.380655,2.411624,0.1928431
48.64996243,0.000994605,-0.006440063,1.002519,-1.257499,2.411624,-0.6615701
48.65752268,-0.004333535,-0.005524504,0.9952291,-0.7648726,1.754383,-0.6615701
48.66760159,-4.86E-05,0.00454304,0.9850679,-0.3954031,0.6191484,-0.05127494
48.67768097,0.001870619,0.008887745,0.9855795,-0.02593367,0.6191484,0.1318136
48.68776035,-0.000505762,0.000232405,0.9899083,0.7745835,0.2009041,0.1318136
48.69783926,0.003877254,-0.001127136,1.003522,0.5898488,-0.7550829,0.07078408
48.70791864,-0.001870839,-0.01026125,1.008824,-0.02593367,-0.09784186,-0.4784815
48.71799803,-0.000909131,-0.01026653,1.00785,-0.7032943,0.9178943,-0.6615701
48.72807694,-0.000481586,-0.002625115,0.9957304,-1.072764,2.112878,1.047256
48.73815632,-0.005321589,-0.005090959,0.9874466,-1.503812,2.292126,0.3149022
48.74823523,-0.004847716,-0.009472853,0.980607,-1.257499,3.248113,0.8031382
48.75831461,-0.009693285,0.001142087,0.9821351,-0.5185596,1.814132,1.535492
48.76839399,-0.003890961,-0.003184864,0.9835642,-0.8264508,0.7386467,2.389906
48.7784729,0.002870901,-0.009946348,0.9810848,-2.181172,-0.2770894,4.281821
48.78855276,-0.000475549,-0.009885885,0.9913067,-1.380655,-1.292826,3.427408
48.79863215,-0.00239199,-0.009860332,0.9956879,-1.873281,-0.9343305,2.206817
48.80871153,-0.000461755,-0.01034114,0.9956836,-1.934859,0.1411549,1.169315
48.81879044,0.001020629,-0.02093161,0.9985378,-0.9496073,1.395888,1.291374
48.82886982,-0.00774523,-0.00027024,0.9874777,-0.1490902,1.694634,1.596522
48.8389492,-0.00770153,-0.007450033,0.9961932,-0.02593367,1.694634,1.84064
48.84902811,-0.01929642,0.001224865,0.9967415,-0.08751191,2.053129,0.9251972
48.85910749,-0.01060912,-0.003603173,0.994759,0.09722282,2.292126,0.6200497
48.8691864,-0.01010641,-0.000649321,1.004509,-1.319077,3.42736,0.8641677
48.87926579,-0.009095901,-0.01800667,1.004889,-1.750125,4.084601,1.047256
48.88934517,-0.009128597,-0.01128813,0.9995773,-3.351159,4.443097,2.511965
48.89942408,-0.004799983,-0.01276464,0.9942122,-2.673798,2.590872,1.657551
48.90950346,-0.01155937,-0.01133192,0.9927663,-2.796955,1.93363,2.328876
48.91958332,-0.01543285,-0.00748878,0.9908462,-2.858533,0.5593992,3.18329
48.9296627,-0.002866185,-0.01517746,0.9937094,-0.888029,-0.3368386,2.878142
48.93974161,-0.01302471,-0.008463481,0.9888919,-0.3338249,-0.456337,2.939171
48.949821,0.000507247,-0.000632408,1.005961,-0.3338249,-1.950067,2.389906
48.95990038,-0.004308276,-0.009349529,1.000559,0.4666923,-1.472073,0.8031382
48.96997929,-0.005728522,-0.01365788,1.005886,-0.3338249,-0.3368386,1.657551
48.97753859,-0.005308254,0.001726548,0.9981936,-0.888029,0.02165651,2.267847
48.98761797,-0.000941987,-0.008397502,0.9981288,-0.6417161,0.7386467,1.108286
48.99769688,-0.005313687,-0.006528717,0.9888977,-0.9496073,2.053129,1.901669
49.00777626,-0.01261978,0.01561648,0.983685,-2.489064,1.156891,1.657551
49.01785612,0.00244846,-0.02776004,0.9858432,-2.489064,1.93363,2.817112
49.02793551,0.002908869,-0.01325913,0.9912836,-1.319077,0.6788976,2.939171
49.03801441,-0.006243792,-0.02100299,0.9878374,-1.134342,0.9178943,3.488437
49.0480938,-0.006741686,-0.01327832,0.9893444,-1.626968,2.112878,4.159761
49.05817318,-0.007205339,-0.0161482,0.9932203,-0.888029,3.009116,2.634024
49.06825209,-0.01006459,-0.02238064,0.9995107,-1.380655,3.606608,2.389906
49.07833147,-0.01005684,-0.02430365,1.000472,-1.072764,3.009116,2.511965
49.08841085,-0.01975853,-0.009885282,0.9937546,-1.19592,2.650621,2.450935
49.09848976,-0.01202875,-0.01033478,0.9981256,-1.380655,1.754383,1.962699
49.10856915,-0.01923987,-0.01805021,0.9990575,-1.134342,2.172627,1.169315
49.11864805,-0.01054404,-0.022375,1.000484,-1.56539,3.009116,0.4979907
49.12872744,-0.01486693,-0.02476551,1.004366,-2.489064,3.009116,0.3759317
49.1388073,-0.01824965,-0.02478302,1.001935,-3.535894,3.487109,-0.4784815
49.14888668,-0.009094976,-0.02382368,0.9999878,-3.104846,3.785855,0.5590202
49.15896559,-0.0124997,-0.01855442,0.9946697,-3.597472,3.726106,0.009754575
49.16904497,-0.01104117,-0.0209526,0.9966006,-2.489064,3.009116,0.8641677
49.17912436,-0.003295448,-0.03688515,0.9926049,-1.811703,2.531122,1.962699
49.18920326,-0.01063253,-0.01141218,0.9796265,-1.319077,1.754383,2.634024
49.19928265,-0.01492349,-0.01858321,0.9902918,-1.811703,0.9178943,3.000201
49.20936203,-0.01780645,-0.02486664,0.9883094,-1.319077,0.2606533,1.596522
49.21944094,-0.02068522,-0.02241255,0.9956258,-1.011186,0.6191484,0.07078408
49.22952032,-0.01977729,-0.01622953,0.9815507,-0.9496073,0.2606533,0.4369612
49.23959923,-0.01490226,-0.02193198,0.994651,-1.134342,1.156891,0.4979907
49.24967861,-0.01824129,-0.03349354,0.9970164,-1.442233,1.575135,0.9862267
49.259758,-0.02118979,-0.0224609,0.98784,-1.380655,1.336138,1.474463
49.26983786,-0.01979976,-0.01676277,0.973275,-0.3954031,0.3204024,1.169315
49.27991676,-0.01833767,-0.0167287,0.9786269,1.390366,0.3801516,0.7421087
49.28747606,-0.01347149,-0.02826915,0.9834192,1.698257,0.49965,1.108286
49.29755545,-0.02018577,-0.02528471,0.9990143,0.9593183,0.49965,2.145788
49.30763483,-0.01535554,-0.03156838,0.9960526,0.4666923,0.5593992,2.206817
49.31771374,-0.02020529,-0.02096244,0.9961208,-0.6417161,0.6788976,2.695053
49.32779312,-0.02163113,-0.03401131,0.9916631,-2.735376,1.634884,3.427408
49.33787203,-0.0153794,-0.0233761,0.9951292,-2.489064,1.873881,2.695053
49.34795141,-0.008160397,-0.03019121,0.9838901,-0.9496073,0.0814057,1.718581
49.35803127,-0.01250777,-0.03069469,0.9809707,0.09722282,-0.7550829,0.6810792
49.36811066,-0.009592421,-0.0321003,0.9872859,1.020896,-1.412324,0.7421087
49.37818956,-0.009573821,-0.03060556,0.9950808,0.9593183,-1.292826,1.047256
49.38826895,-0.01002693,-0.03102819,1.004811,0.651427,-1.173327,0.8031382
49.39834833,-0.00757772,-0.03433916,1.015008,-0.4569814,0.5593992,1.657551
49.40842724,-0.01630902,-0.01457332,1.015135,-0.4569814,1.634884,2.389906
49.41850662,-0.007144896,-0.01892774,1.011695,-0.3954031,2.053129,2.450935
49.42858601,-0.01100071,-0.01213711,1.018552,-1.811703,1.455637,3.12226
49.43866491,-0.006714867,-0.007886577,1.003489,-2.796955,0.8581451,2.695053
49.4487443,-0.009624794,-0.01131848,0.9947114,-2.550642,-0.03809267,1.962699
49.45882368,-0.000476481,-0.01279739,0.9883694,-1.996438,-0.9940796,2.939171
49.46890259,0.01067924,-0.02622918,0.9984983,-1.257499,-0.3965878,3.305348
49.47898197,0.001054089,-0.03831667,0.9945393,-1.257499,1.455637,3.366378
49.48906183,-0.002906019,-0.01768769,0.977636,-1.811703,1.037393,4.281821
49.49914074,-4.55E-05,-0.0119375,0.9713427,-0.6417161,-1.053829,3.976673
49.50922012,-0.006265181,-0.02250373,0.9790691,-0.3954031,-1.531822,4.464909
49.51929951,-0.006227994,-0.03260702,0.9829007,-1.011186,-1.173327,4.34285
49.52937841,-0.01692579,-0.01243834,0.9703794,-0.2722467,-1.531822,3.12226
49.5394578,-0.01693463,-0.01391209,0.965991,-0.08751191,-1.890318,3.427408
49.54953718,-0.01590071,-0.03218895,0.973665,0.7745835,-0.8148321,3.549467
49.55961609,-0.02024359,-0.03171293,0.9731846,1.205631,0.2009041,4.586968
49.56969547,-0.0183045,-0.01762722,0.9893269,0.89774,0.9776434,4.770057
49.57977486,-0.02261221,-0.0291985,0.9902333,0.7745835,2.889617,4.34285
49.58985376,-0.01683389,-0.01708991,0.9980882,0.651427,3.128614,3.976673
49.59993315,-0.01636683,-0.02100155,0.9893049,0.89774,3.726106,3.610496
49.61001205,-0.005740169,-0.03695893,0.9809275,0.8361618,2.889617,4.159761
49.61757231,-0.01498378,-0.01531842,0.9723068,1.451944,0.6191484,5.990647
49.62765122,-0.01646012,-0.01198872,0.965029,2.067727,-3.085301,5.319323
49.6377306,-0.01210423,-0.006617729,0.9752772,1.821414,-4.818027,6.84506
49.64780998,-0.0193265,-0.01872141,0.9683966,1.575101,-4.937526,6.723001
49.65788889,-0.01546649,-0.01677453,0.9708385,2.498774,-4.877777,5.807559
49.66796827,-0.02027783,-0.01675413,0.9747353,1.882992,-4.160786,5.990647
49.67804766,-0.01687326,-0.01814438,0.9834833,2.067727,-2.667057,4.525939
49.68812656,-0.01829753,-0.02197649,0.9878407,1.882992,-0.5758353,3.610496
49.69820595,-0.01971452,-0.02045883,0.9995298,1.451944,1.395888,3.976673
49.70828581,-0.01778537,-0.0243364,0.9960984,0.7130053,2.112878,4.34285
49.71836519,-0.02598515,-0.02046651,0.999048,1.020896,3.009116,3.671525
49.7284441,-0.02551933,-0.01953164,0.9941871,1.513522,3.367611,3.610496
49.73852348,-0.0279501,-0.01957542,0.987376,2.190883,3.009116,5.502411
49.74860239,-0.0318174,-0.0225078,0.9815218,3.052979,0.9776434,5.6855
49.75868177,-0.02840105,-0.02629732,0.9922017,3.052979,-1.292826,5.258293
49.76876116,-0.0240433,-0.02819609,0.9965665,2.868244,-2.368311,4.647998
49.77884007,-0.02353316,-0.03686427,0.99846,4.161386,-3.085301,3.854614
49.78891945,-0.0230117,-0.03193042,1.016494,2.868244,-3.981539,3.732555
49.79899883,-0.02836075,-0.02233133,1.009744,2.314039,-4.399783,3.488437
49.80907774,-0.02878969,-0.02997574,1.021377,2.006148,-4.877777,2.023729
49.81915712,-0.03122914,-0.02227951,1.018506,1.636679,-3.682793,0.3149022
49.82923651,-0.04377536,-0.02909437,1.009715,0.7130053,-2.308562,-1.638042
49.83931637,-0.05250727,-0.00690527,1.011803,0.89774,-2.368311,-4.506429
49.84939528,-0.04330133,-0.03299101,1.003365,0.7130053,-0.8148321,-7.069669
49.85947466,-0.05778212,-0.0310908,1.000468,0.5898488,1.814132,-10.48732
49.86955357,-0.06354509,-0.03880215,1.001885,0.158801,3.845605,-12.80644
49.87963295,-0.05828793,-0.02629263,0.9966044,-1.503812,2.590872,-15.12556
49.88971233,-0.07615113,-0.01907517,0.9961752,-1.56539,-0.3368386,-20.19102
49.89979124,-0.05825073,-0.02330315,1.012194,-2.181172,-1.71107,-27.08735
49.90987063,-0.07429478,0.02829192,1.013493,-5.136928,-1.591572,-35.69251
49.91995001,-0.06701147,0.004642985,1.009451,-7.353745,-1.890318,-45.57929
49.92750979,-0.07770678,0.03257568,1.004762,-8.893201,-2.726806,-52.53666
49.93758917,-0.09889812,0.04910637,1.02921,-13.94262,-4.399783,-68.46536
49.94766808,-0.09362684,0.06649539,1.033204,-18.25309,-2.906054,-81.83083
49.95774746,-0.08675189,0.01245523,1.027518,-18.49941,2.232376,-93.79261
49.96782637,-0.1279699,0.06576265,0.9967299,-15.42049,5.757578,-97.63747
49.97790575,-0.128827,0.03544305,1.006765,-14.06577,6.41482,-104.6559
49.98798513,-0.1273293,0.0117928,1.003214,-10.74055,3.785855,-107.4022
49.99806404,-0.1232558,-0.05514435,1.01789,-12.15685,-0.9940796,-106.8529
50.00814343,-0.1139847,-0.09563766,1.019097,-9.940031,-7.207995,-106.2426
50.01822281,-0.1033843,-0.1150458,0.9985333,-5.875867,-11.09169,-106.5478
50.02830172,-0.1058386,-0.1321124,0.9682614,-2.735376,-15.15464,-113.2
50.0383811,-0.09474819,-0.1709002,0.9329811,-2.181172,-13.66091,-109.6603
50.04846096,-0.1011722,-0.158145,0.8907279,0.7745835,-11.45019,-108.8669
50.05854034,-0.09926233,-0.1698225,0.873624,3.545604,-10.2552,-109.111
50.06861925,-0.09430566,-0.2209316,0.8742833,6.87083,-8.522478,-105.3272
50.07869864,-0.1040468,-0.1644104,0.8916653,9.210803,-5.475268,-105.6934
50.08877802,-0.09480074,-0.1782869,0.9081189,9.210803,1.21664,-106.975
50.09885693,-0.09322597,-0.1746161,0.9558282,9.33396,8.625539,-105.6934
50.10893631,-0.1053024,-0.1159937,1.001449,10.50395,12.44949,-105.0831
50.11901522,-0.08642918,-0.1289315,1.012548,9.703429,15.91494,-104.6559
50.1290946,-0.09846447,-0.1114385,1.035534,8.779756,15.49669,-103.6794
50.13917398,-0.08738077,-0.07119938,1.06886,7.240299,14.24196,-104.1066
50.14925289,-0.07625432,-0.06723712,1.084447,7.609768,11.97149,-112.8338
50.15933228,-0.05790903,-0.07930373,1.080467,8.102395,10.41801,-118.6316
50.16941166,-0.07490737,-0.05678245,1.059205,5.08506,8.745037,-120.4015
50.17949152,-0.05047772,-0.0323882,1.023812,6.50136,4.383348,-128.0302
50.18957043,-0.04525793,-0.04953897,0.9789349,7.91766,1.097142,-131.3868
50.19964981,-0.03085773,-0.04627838,0.9585059,7.609768,-1.412324,-133.95
50.20972919,-0.001880952,-0.05053107,0.9691634,7.363455,-2.189063,-134.9875
50.2198081,5.82E-05,-0.07523844,0.9505205,5.269795,-0.03809267,-135.1706
50.22988749,0.01795558,-0.04552885,0.9959424,2.9914,1.754383,-136.2691
50.23996639,0.03683501,-0.07397068,0.9952686,0.2203793,6.235572,-139.2596
50.24752569,0.02228556,-0.06882367,0.9714669,-2.920111,8.147545,-141.8839
50.25760508,0.03820907,-0.07024655,0.9733925,-4.829037,7.012311,-140.2971
50.26768494,0.03322406,-0.01192467,0.9693708,-4.397989,4.682093,-143.0434
50.27776432,0.04579011,-0.01719009,0.9741953,-3.597472,2.949367,-147.6207
50.28784323,0.02636846,0.02421519,0.9657025,-1.011186,-1.352575,-149.5736
50.29792261,0.04326313,0.02620177,0.9730009,0.03564457,-6.252008,-154.0898
50.308002,0.04264812,0.08604563,0.9806638,2.190883,-8.880973,-153.5405
50.3180809,0.05907108,0.08175059,0.9859779,2.375618,-6.8495,-153.1743
50.32816029,0.05230892,0.1006344,0.9992364,2.806665,-6.431255,-152.8692
50.33823919,0.07649062,0.07752524,1.002484,2.314039,-6.132509,-152.6251
50.34831858,0.09768368,0.08378936,0.9990993,4.777169,-6.132509,-150.489
50.35839796,0.09076193,0.1527613,1.001956,5.639265,-7.028747,-149.8787
50.36847687,0.1014546,0.1122151,0.9944026,6.747673,-7.327493,-149.3905
50.37855625,0.08977696,0.1367143,0.9804485,6.50136,-6.610503,-152.9302
50.38863611,0.09789959,0.1661378,0.9806209,4.900326,-5.654516,-154.8832
50.3987155,0.1050752,0.1631087,0.9577261,4.961904,-4.399783,-157.3854
50.4087944,0.1027495,0.1429243,0.9692841,3.791917,-3.682793,-159.0332
50.41887379,0.09784594,0.1509901,0.9484124,4.469278,-4.579031,-161.4133
50.42895317,0.08032492,0.1821525,0.9208779,5.331373,-7.805487,-163.0611
50.43903208,0.08952746,0.1672126,0.9212668,6.562938,-11.15144,-163.4273
50.44911146,0.1083747,0.1644021,0.9324274,8.163973,-12.88417,-165.4413
50.45919085,0.1109128,0.1210342,0.937515,9.026069,-14.85589,-166.3567
50.46926975,0.1118428,0.148116,0.9498441,7.055564,-18.20185,-165.4413
50.47934914,0.0968455,0.1562461,0.9406592,5.023482,-22.80253,-164.1596
50.48942804,0.1176229,0.1485905,0.9478961,4.777169,-27.16422,-163.9155
50.49950743,0.1202082,0.1043542,0.96855,4.222965,-29.73344,-166.4177
50.50958681,0.0883164,0.1153472,0.9564758,5.639265,-27.40322,-166.1736
50.51966667,0.09276402,0.08939584,0.9704267,6.562938,-25.01325,-164.831
50.52974558,0.09637575,0.02977607,0.9987724,6.932408,-24.35601,-162.6949
50.53982496,0.0766964,0.03674977,1.037272,3.668761,-22.62329,-160.0707
50.54990435,0.02022526,0.056486,1.038409,1.698257,-18.44084,-159.0942
50.55746365,0.02167419,0.07200911,1.0531,2.560353,-13.78041,-158.4839
50.56754255,-0.02617287,0.1071479,1.048484,2.621931,-11.09169,-157.5074
50.57762194,-0.03051728,0.1289569,1.066625,5.577686,-9.896709,-152.564
50.58770084,-0.03956923,0.09184971,1.071759,7.732925,-10.8527,-148.353
50.59778023,0.002102029,0.02199313,1.077629,9.888164,-12.76467,-146.0339
50.60786009,-0.01735451,0.05023065,1.045212,11.92025,-13.42191,-139.6258
50.61793947,-0.01497646,0.02058116,1.007074,9.210803,-15.15464,-136.6353
50.62801838,-0.01034178,0.0565497,0.9741994,5.823999,-16.23012,-134.7434
50.63809776,-0.002842289,0.09003417,0.9291417,6.624516,-13.78041,-133.0346
50.64817715,0.03441329,0.06316973,0.9474415,5.516108,-3.682793,-133.4618
50.65825605,0.06833049,0.06159882,1.00142,3.791917,11.55325,-134.5603
50.66833544,0.04635605,-0.02137404,0.9994735,1.082475,22.36785,-134.1942
50.67841482,0.05368512,-0.002251916,1.049705,-1.072764,22.5471,-131.9361
50.68849373,0.02187423,0.02200788,1.077614,-6.614806,21.83011,-128.9456
50.69857311,0.04185438,-0.0250521,1.107483,-12.52632,22.9056,-121.9882
50.70865202,-0.004545158,0.012514,1.105314,-19.3615,23.50309,-115.6412
50.7187314,0.007018156,0.04886847,1.134236,-21.02411,24.16033,-112.5287
50.72881126,0.02102241,0.02127959,1.116053,-20.40833,26.84904,-112.7728
50.73889065,0.02625784,-0.007960474,1.06575,-19.42308,24.57857,-111.3081
50.74896956,0.03681742,0.006002752,1.060961,-17.14469,21.29237,-108.1345
50.75904894,0.05955128,-0.02923271,1.052943,-16.5289,18.84265,-107.5242
50.76912832,0.04780389,-0.01797621,1.002899,-13.20368,17.22942,-103.9845
50.77920723,0.03564091,0.01863894,0.9987515,-11.84896,16.69168,-99.28526
50.78928661,0.07197241,-0.03868905,1.003728,-11.7258,18.7829,-95.50143
50.799366,0.04915237,-0.01139755,0.9747145,-12.52632,18.36466,-89.52054
50.8094449,0.04616343,0.0126409,0.963184,-14.18893,16.33319,-87.9948
50.81952429,0.05002141,-0.000448999,0.9514228,-14.43524,13.94322,-88.60509
50.82960367,0.06542501,-0.00195322,0.9402097,-15.1126,12.74823,-87.9948
50.83968258,0.04016723,0.02964375,0.9058712,-15.29734,9.581526,-84.94333
50.84976244,0.02171891,0.07252349,0.9017661,-12.15685,3.128614,-84.82127
50.85984182,0.02904129,0.06641558,0.9270273,-6.430071,1.156891,-84.57715
50.86992073,0.03833388,0.04972954,0.9570891,-0.4569814,2.053129,-82.99038
50.87748003,0.03506552,0.02813666,0.9749653,1.821414,3.367611,-80.18303
50.88755941,0.03089637,0.000861008,1.009839,2.067727,1.694634,-76.15508
50.8976388,0.03195432,0.001062669,1.042443,0.2819575,-0.2173402,-72.31022
50.90771771,0.01692077,0.01347909,1.024525,0.89774,-3.204799,-70.84551
50.91779709,0.01357399,-0.009252241,1.014171,-1.19592,-6.431255,-67.36683
50.92787647,0.02362869,-0.00503638,0.9927775,-3.843785,-8.821223,-62.11829
50.93795633,0.009516247,0.01989532,0.971042,-6.922697,-9.060221,-58.15137
50.94803524,-0.001189615,0.03665225,0.9526605,-8.031105,-8.283481,-56.93078
50.95811462,-0.005089284,0.05013742,0.9503123,-8.523731,-5.714265,-56.32049
50.96819353,-0.01667843,0.06367383,0.957216,-6.922697,-0.2770894,-57.11387
50.97827292,0.004650079,0.04889281,0.9819272,-4.459568,6.653816,-57.05284
50.9883523,0.01394205,0.02590152,1.006111,-4.459568,14.54071,-54.55063
50.99843121,0.0208164,-0.008258346,1.018064,-3.351159,17.05017,-51.92636
51.00851059,0.03150458,-0.03669129,1.01983,-3.474315,13.10673,-44.84694
51.01858997,0.01839523,-0.01749491,1.006331,-3.966941,5.757578,-39.35428
51.02866888,0.02502941,0.003594247,0.9845564,-2.427485,-1.173327,-34.77707
51.03874826,0.0277842,0.01445127,0.9461775,-0.1490902,-6.730001,-30.68809
51.04882765,0.0214282,0.04383995,0.9424679,1.636679,-11.45019,-27.75867
51.05890751,0.02676145,0.04148064,0.9502353,1.821414,-10.79295,-25.56161
51.06898642,0.01707543,0.07435954,0.9655274,1.636679,-7.088496,-24.89029
51.0790658,0.02689026,0.05194084,1.004313,0.7745835,-0.456337,-26.66014
51.08914518,0.02218988,0.03280312,1.029505,-0.7032943,5.219836,-28.00279
51.09922409,0.03144186,0.01554486,1.044964,-3.782207,7.669552,-26.11088
51.10930347,0.03674567,0.01263731,1.042023,-3.966941,6.594067,-26.04985
51.11938238,0.06039352,-0.0018546,1.035104,-4.213254,3.845605,-24.15793
51.12946177,0.05455212,-0.0107044,1.008291,-4.274833,1.276389,-20.3741
51.13954115,0.06021715,0.008919284,0.9835885,-3.720628,-1.890318,-15.97998
51.14962006,0.05818557,0.02372969,0.9612956,-1.873281,-4.101037,-11.34173
51.15969944,0.05765947,0.03478813,0.9560103,1.575101,-5.893513,-9.022614
51.16977882,0.06203426,0.02080307,0.9554355,5.269795,-5.35577,-7.374816
51.17985868,0.05630755,0.0131697,0.9695054,6.50136,-3.563295,-6.215255
51.18993759,0.04770764,-0.009454628,0.9771605,6.193469,-2.487809,-5.055695
51.19749689,0.04144105,-0.009938559,0.977649,5.146638,-2.846304,-3.346868
51.20757628,0.04772609,-0.004080879,0.9883853,4.284543,-3.503546,-2.370396
51.21765518,0.0337477,-0.004561568,0.9903396,3.545604,-4.041288,-2.614514
51.22773457,0.02938826,0.018185,1.004106,1.821414,-3.443796,-3.652016
51.23781395,0.03856881,0.01726033,1.009446,0.8361618,-0.5758353,-6.520403
51.24789286,0.03758137,0.01090636,0.9957833,1.020896,0.6191484,-8.412318
51.25797224,0.04192856,-0.01089671,0.9786161,0.9593183,-0.2173402,-7.740993
51.2680521,0.03750016,0.009761907,0.9665794,1.821414,-2.308562,-4.506429
51.27813149,0.03700674,0.001009036,0.9548479,4.161386,-5.415519,-3.10275
51.28821039,0.04668533,-0.01588358,0.9513316,5.208217,-6.8495,0.009754575
51.29828978,0.03121758,-0.005788795,0.9479985,6.008734,-9.358967,3.793585
51.30836916,0.03026858,0.003457246,0.9616805,6.747673,-11.74893,5.014175
51.31844807,0.03418469,0.002130334,0.9806475,6.809251,-11.50994,6.173736
51.32852745,0.04143903,-0.003154042,0.9830429,6.255047,-9.119969,6.478883
51.33860636,0.04191107,0.008462348,0.9899257,4.592434,-6.670252,6.234765
51.34868574,0.04475079,0.0146528,0.9768225,4.161386,-4.101037,6.417854
51.35876513,0.0529222,0.01799569,0.9705105,3.915074,-2.129314,5.929617
51.36884403,0.04617089,0.02720443,0.9788441,3.853496,-0.5758353,5.197263
51.37892389,0.03268374,0.03741162,0.9935148,3.052979,-0.03809267,3.488437
51.38900328,0.03418441,0.03170965,1.007104,2.806665,0.02165651,2.572994
51.39908266,0.03421618,0.02644387,1.013398,2.745087,1.336138,2.756083
51.40916157,0.03863452,0.01352228,1.028888,1.205631,2.590872,4.709027
51.41924095,0.03476803,0.03483745,1.045079,0.3435358,3.487109,5.319323
51.42932034,0.04639885,0.007812992,1.040526,-0.6417161,4.084601,4.037703
51.43939924,0.03279021,0.03473104,1.028048,-3.228002,3.905354,5.197263
51.44947863,0.03467736,0.03464251,1.013448,-3.597472,3.307862,5.746529
51.45955801,0.0274489,0.04240712,1.02226,-2.796955,2.770119,5.56344
51.46963692,0.0390221,0.0399895,1.019803,-1.811703,4.92109,4.770057
51.4797163,0.03465877,0.04624054,1.017411,-0.3338249,6.952562,4.525939
51.48979521,0.04337457,0.02595645,1.011442,1.267209,7.430556,2.756083
51.49987507,0.03225309,0.02442944,0.9997624,1.328788,5.877077,2.695053
51.50995445,0.03078543,0.0331119,1.000303,1.451944,2.531122,4.159761
51.51751375,0.03027389,0.04177707,0.9979227,1.636679,1.515386,3.610496
51.52759314,0.03129354,0.02249972,0.9997514,0.7745835,1.93363,3.18329
51.53767204,0.02355416,0.02341348,0.9924636,1.020896,0.9776434,3.732555
51.54775143,0.0235196,0.024309,0.9812769,0.89774,-2.189063,4.647998
51.55783081,0.02012155,0.03735127,0.9852516,1.513522,-7.387242,7.272267
51.56790972,0.02738395,0.03111439,0.9895877,2.683509,-11.86843,9.225211
51.5779891,0.01189607,0.06104748,0.9970807,4.222965,-15.27414,10.50683
51.58806801,0.02213317,0.04722868,1.022779,3.915074,-16.46912,10.81198
51.59814787,0.03334066,0.03875737,1.055323,4.715591,-14.97539,9.286241
51.60822725,0.03574415,0.03631791,1.05044,5.516108,-12.16718,5.6855
51.61830664,0.03715384,0.02072199,1.02358,4.654013,-9.179719,3.366378
51.62838554,0.03379993,-0.002509596,1.010303,3.052979,-6.013011,4.464909
51.63846493,0.02121109,0.001252088,0.9962238,0.4666923,-1.830568,4.953146
51.64854431,0.02166453,0.02010226,1.003151,-0.6417161,2.351875,4.953146
51.65862322,0.01352022,0.005664575,1.008909,-1.873281,7.609803,2.939171
51.6687026,0.02458158,0.01530589,1.007012,-2.735376,14.00296,0.9251972
51.67878199,0.024622,-0.01515695,0.9936885,-4.274833,16.27344,0.9251972
51.68886089,0.02453924,-0.008061133,0.9713473,-5.444819,13.94322,2.145788
51.69894028,0.02153496,0.01594433,0.9544639,-5.198506,9.760773,1.535492
51.70902014,0.02876062,0.003809455,0.9407594,-4.705881,6.474569,2.145788
51.71909952,0.03453087,0.008142043,0.9388348,-4.336411,3.785855,3.305348
51.72917843,0.02007177,0.008149244,0.9417656,-3.535894,3.367611,3.793585
51.73925781,0.02104108,0.01446422,0.9491025,-2.489064,1.156891,4.34285
51.74933672,0.02687038,0.01601427,0.9651657,-1.56539,-0.5758353,5.319323
51.7594161,0.03275299,0.01428452,0.9967808,-0.888029,-1.292826,4.525939
51.76949549,0.02357059,0.01811471,0.9934047,-0.9496073,-0.8745813,3.18329
51.77957439,0.007634383,0.03648239,1.002288,-0.888029,-1.651321,2.206817
51.78965378,0.0202277,0.02060742,1.007048,0.5898488,-2.009816,0.4369612
51.79973316,0.02746035,0.01721606,1.003615,1.267209,-1.233076,-0.417452
51.80981207,0.02890214,0.02351041,1.007545,0.9593183,-2.129314,0.1318136
51.81989145,0.02939229,0.02207301,1.008996,0.3435358,-3.384047,1.169315
51.82745123,0.02601113,0.02254375,1.007542,-0.5185596,-3.92179,2.206817
51.83753061,0.0235689,0.03459824,1.007617,-1.503812,-6.132509,3.732555
51.84760952,0.02500511,0.04088059,1.0096,-2.550642,-7.267744,5.014175
51.8576889,0.0274881,0.02988357,1.024617,-2.119594,-8.283481,4.40388
51.86776829,0.02607002,0.02364021,1.028959,-2.181172,-9.000471,4.770057
51.8778472,0.02412507,0.03039329,1.029488,-2.489064,-9.77721,4.464909
51.88792658,0.03478351,0.0135344,1.031324,-2.981689,-7.984735,4.037703
51.89800644,0.03716468,0.006682699,1.014736,-3.597472,-5.236272,3.549467
51.90808487,0.0284673,0.006154982,1.008413,-3.166424,-3.025552,2.695053
51.91816473,0.02843987,0.003186492,0.99623,-3.351159,-1.233076,2.389906
51.92824411,0.03083453,0.003637553,0.9908782,-3.351159,-0.9343305,1.596522
51.9383235,0.03036699,-0.006999339,0.9864344,-3.720628,0.3204024,1.474463
51.94840241,0.03178739,-0.006569992,0.9776769,-4.582724,1.097142,1.901669
51.95848179,0.03467469,0.000207685,0.9816087,-5.260085,3.009116,1.962699
51.9685607,0.02787424,0.01270521,0.9758503,-5.999023,5.578331,1.169315
51.97864008,0.03119714,0.02180753,0.9656842,-5.383241,6.534318,-0.3564225
51.98871946,0.03993077,0.009320443,0.9729009,-4.952193,6.056324,-1.821131
51.99879837,0.03464835,0.005000212,0.9767717,-4.459568,5.817328,-2.004219
52.00887775,0.03269874,0.005924288,0.9704528,-3.535894,3.726106,-2.309367
52.01895714,0.04188378,-0.007113669,0.9664736,-2.673798,1.515386,-1.454954
52.02903605,0.03846852,0.008801122,0.9670596,-1.873281,-0.3965878,-0.6615701
52.03911591,0.03466555,-0.002236564,0.9762411,-0.8264508,-0.2770894,-1.760101
52.04919529,0.02979812,0.009786142,0.9714516,-0.3954031,-0.2770894,-0.9056881
52.05927467,0.023576,0.008912933,0.9870229,-0.5801378,-0.157591,0.009754575
52.06935358,0.0283861,0.02246757,0.9948873,-0.5185596,-0.09784186,-0.4784815
52.07943296,0.03134438,0.01582017,1.01139,-0.1490902,1.037393,-1.271865
52.08951235,0.04001369,0.01580266,1.00749,-0.8264508,1.694634,-1.088777
52.09959126,0.03421137,0.01576535,1.002141,-1.011186,1.694634,-1.577013
52.10967064,0.03664724,0.0012726,0.997672,-1.56539,0.6788976,-0.173334
52.11974955,0.03322672,0.02251015,1.00121,-1.750125,-0.3965878,1.047256
52.12982893,0.03901789,0.01379495,0.9948265,-0.9496073,-0.8148321,-0.05127494
52.13990831,0.0361103,0.02200607,0.9973116,-0.8264508,-0.9343305,0.9251972
52.14746809,0.04048014,0.02304279,1.008507,-0.9496073,-0.9940796,0.3149022
52.15754747,0.03857547,0.007576303,1.003062,-1.011186,-0.3368386,-0.9056881
52.16762638,0.03713135,0.007095971,1.003546,-1.072764,0.4399008,-1.393924
52.17770577,0.04196686,-0.000146205,1.001552,-1.319077,1.754383,-1.577013
52.18778515,0.03467858,0.007974699,0.9899283,-1.19592,2.590872,-1.760101
52.19786406,0.03853314,-0.002697943,0.979155,-1.134342,2.471373,-0.8446586
52.20794344,0.02644423,0.008375857,0.9777717,-1.011186,1.694634,0.3149022
52.21802235,0.02549817,0.000656109,0.9772389,-0.6417161,0.3801516,0.8641677
52.22810173,0.0332422,0.001207099,0.9874552,-0.4569814,-0.5160862,0.9251972
52.23818159,0.03424422,0.005167804,1.004024,-0.8264508,0.02165651,0.8641677
52.24826098,0.03326886,0.001749333,0.9971908,-1.19592,0.7386467,0.3149022
52.25833988,0.02941165,0.00417271,0.9996416,-0.7032943,0.6788976,-0.417452
52.26841927,0.03420965,0.001699067,0.9889173,-0.6417161,0.7386467,-0.05127494
52.27849865,0.03660988,-0.002202135,0.9815925,-0.7032943,1.097142,0.8031382
52.28857756,0.03856833,-0.001652463,0.9923,-0.3954031,1.037393,0.5590202
52.29865694,0.03665452,-0.006470422,0.9932454,-1.442233,0.8581451,0.8641677
52.30873632,0.03859065,-0.001604476,1.000086,-2.365907,0.7983959,0.4369612
52.31881523,0.03470445,-0.007002099,0.9854578,-2.858533,1.097142,-0.417452
52.32889462,0.02550034,0.003085362,0.9801733,-2.304329,-0.5160862,0.6200497
52.33897352,0.02259538,0.006452968,0.9792228,-1.934859,-1.173327,0.1318136
52.34905291,0.02745166,0.003134788,0.987958,-1.503812,-0.3965878,-0.05127494
52.35913277,0.03373916,-0.01379333,0.9790913,-1.257499,0.6788976,-0.5395111
52.36921215,0.0260173,-0.00168881,0.9879298,-0.5801378,1.455637,-0.1123045
52.37929106,0.02697266,0.004596179,0.9904004,-0.3954031,1.99338,-0.1123045
52.38937044,0.02845784,-0.005988289,0.9942278,-0.3338249,3.726106,-0.295393
52.39944983,0.02601777,0.004131203,0.993318,-0.5801378,4.323598,0.3149022
52.40952873,0.0245856,0.006101118,1.000144,0.09722282,3.965103,0.1928431
52.41960812,0.03717102,-0.003971829,1.007372,0.09722282,3.188363,0.009754575
52.4296875,0.02991373,-0.00354296,0.9995943,-0.3954031,2.590872,0.3149022
52.43976641,0.0342174,0.004140317,0.9937983,-0.3338249,0.6788976,0.3759317
52.44984579,0.02214118,0.002633583,0.985526,0.2203793,-0.5758353,0.07078408
52.45992518,0.02552684,-0.001221913,0.9855,0.5282705,-2.667057,0.4369612
52.46748495,0.03133925,-0.000193109,0.9952341,0.5282705,-2.547559,0.2538726
52.47756386,0.03716481,-0.01465335,0.9956285,0.651427,-1.352575,-0.5395111
52.48764324,0.02849224,-0.007369064,1.004925,0.09722282,-1.053829,-0.3564225
52.49772263,0.03430603,-0.01943004,1.003388,-0.1490902,-0.5160862,-0.4784815
52.50780153,0.03134421,-0.002122117,0.9952223,-0.9496073,-0.3368386,-0.05127494
52.51788092,0.03324144,0.007509363,0.9928463,-1.750125,1.395888,0.2538726
52.5279603,0.02648422,0.01137134,0.9943348,-1.257499,2.770119,-1.577013
52.53803921,0.02312552,0.003646792,0.9933172,-0.3954031,2.889617,-2.370396
52.54811859,0.03525798,-0.01072779,1.006846,-0.9496073,2.949367,-1.699072
52.55819845,0.03286719,-0.02086888,1.00484,-0.6417161,2.411624,-0.7836291
52.56827784,0.02845319,-0.003088778,0.9952187,-1.380655,1.455637,0.2538726
52.57835674,0.02700489,-0.003578109,0.9942436,-2.119594,1.097142,1.291374
52.58843613,0.02744608,0.003122791,0.9860114,-1.996438,0.4399008,1.535492
52.59851503,0.02792306,0.004081656,0.9850436,-1.56539,0.4399008,1.108286
52.60859442,0.02694647,0.001145438,0.978214,-0.9496073,0.2606533,1.291374
52.6186738,0.02260484,0.00550346,0.9816501,-0.7032943,-0.2770894,1.657551
52.62875271,0.02794429,0.000732886,0.9894028,-1.011186,-0.7550829,1.352404
52.63883209,0.01635807,-0.002696499,0.9820918,-0.6417161,-1.233076,0.4979907
52.64891148,0.01681816,0.002105386,0.9787143,-0.7032943,-1.053829,0.4369612
52.65899038,0.01925932,0.008475428,0.9948093,-0.7032943,0.49965,-0.4784815
52.66907024,0.02218148,0.002235307,0.9991488,-0.6417161,3.068865,-1.088777
52.67914963,0.03040001,-0.004018853,1.000564,-2.550642,4.801591,-0.5395111
52.68922901,0.02171054,-0.005984328,0.995693,-2.24275,3.905354,-0.7225996
52.69930792,0.0270004,-0.004557609,0.9918045,-2.550642,1.336138,0.6810792
52.7093873,0.03711895,0.00318997,0.9957368,-1.319077,1.276389,0.07078408
52.71946669,0.02314504,-0.005039739,0.9922912,-1.072764,0.49965,0.6200497
52.72954559,0.02457226,-0.000716389,0.9893966,-0.7032943,-1.830568,1.291374
52.73962498,0.02120799,-0.004088671,0.990352,0.09722282,-3.14505,1.230345
52.74970388,0.02702023,-0.007909378,0.9956772,0.3435358,-3.14505,0.6810792
52.75978327,0.02174447,-0.01754937,0.9970825,0.2203793,-2.547559,1.169315
52.76986265,0.02558046,-0.007895462,0.9981115,-0.7648726,-1.472073,1.047256
52.77994251,0.02945208,-0.02192587,0.9902375,-1.811703,-0.2770894,1.291374
52.78750181,0.02604814,-0.005501837,0.9952059,-2.550642,0.3801516,1.596522
52.79758072,0.01490419,-0.003197824,0.9791701,-2.058016,0.6191484,2.023729
52.8076601,0.02116631,0.009399384,0.9880009,-1.072764,0.7386467,0.3759317
52.81773949,0.01971817,0.01375956,0.9914347,0.4666923,1.99338,-1.760101
52.82781839,0.03378334,-0.01515311,0.9931949,0.651427,1.754383,-2.065249
52.83789778,0.02797372,-0.01181166,0.9883536,-0.1490902,0.4399008,-0.6615701
52.84797669,0.02796319,-0.009894649,0.9864187,-0.3954031,-0.7550829,0.5590202
52.85805607,0.01927853,-0.001181604,0.9928043,-0.2106684,-2.607308,0.4979907
52.86813593,0.02408615,0.004609016,0.9928358,0.03564457,-2.846304,-0.05127494
52.87821531,0.02171705,-0.003060825,1.000577,0.2203793,-1.890318,-0.05127494
52.88829422,0.02224036,-0.01412527,1.004889,-1.19592,-0.7550829,-0.173334
52.8983736,0.03089883,-0.01319627,0.9980752,-1.688546,0.02165651,-0.7836291
52.90845299,0.01311934,-0.0014346,1.030764,-2.858533,0.7386467,-1.88216
52.9185319,0.03090937,-0.01511328,1.00001,-2.365907,-0.5160862,-0.7225996
52.92861128,0.02895124,-0.01469245,0.9902818,-2.550642,-0.5160862,-0.173334
52.93869066,0.02648531,0.01040383,0.9938422,-2.365907,0.02165651,0.009754575
52.94876957,0.03618406,-0.000141526,1.003017,-1.996438,-0.09784186,-0.9667177
52.95884895,0.02708578,-0.0208612,1.006791,-1.996438,-1.412324,-1.149806
52.96892786,0.02454607,0.00019713,0.9811298,-1.072764,-3.86204,-0.2343635
52.9790082,0.02939955,-0.007491308,0.9849723,-1.503812,-4.579031,-0.4784815
52.98908711,0.02262793,0.003613442,0.9879646,-0.9496073,-3.981539,-0.6005406
52.99916649,0.03472118,-0.00696611,0.9912974,-1.257499,-2.846304,0.009754575
53.0092454,0.03909815,-0.01415766,0.9975764,-2.181172,-1.770819,0.7421087
53.01932478,0.02940946,-0.01134932,0.9849489,-2.181172,-1.412324,1.352404
53.02940416,0.03330218,0.001336062,1.008381,-1.134342,-1.292826,0.6200497
53.03948307,0.04153125,-0.01119937,1.007812,-1.750125,-0.5758353,0.6810792
53.04956245,0.03232901,0.004711105,1.008402,-1.011186,0.2009041,-0.3564225
53.05964184,0.01978124,0.00177225,1.002554,-0.7648726,0.2009041,-1.393924
53.06972075,0.03668179,-0.008351442,1.00102,-0.3338249,0.0814057,-2.187308
53.07980013,0.03238091,-0.01602872,1.007789,0.2203793,0.49965,-1.760101
53.08987951,0.03139363,-0.01753318,0.9985352,-0.2722467,-0.3368386,-0.7836291
53.09743929,0.03187076,-0.02045332,0.9941374,-1.134342,-1.233076,0.07078408
53.1075182,0.03087961,-0.01226776,0.9922414,-1.626968,-1.352575,0.3759317
53.11759758,0.02753191,-0.02918208,0.9867886,-1.934859,-2.42806,1.474463
53.12767696,0.02361534,-0.01621814,0.9781111,-1.503812,-3.085301,1.77961
53.13775587,0.03133846,-0.006983625,0.9888668,-1.750125,-2.42806,0.7421087
53.14783525,0.0299173,-0.001110706,1.003016,-1.380655,-1.412324,0.7421087
53.15791464,0.03428992,-0.01316076,1.003426,-1.626968,-0.2173402,0.8641677
53.16799355,0.03573574,-0.01170693,1.004406,-2.119594,0.49965,0.6810792
53.17807341,0.03284735,-0.0175171,1.000967,-1.811703,0.9776434,0.1318136
53.18815279,0.02654914,-0.01661426,0.9917317,-1.750125,1.097142,0.8031382
53.19823217,0.03711941,-0.004082797,0.9893666,-0.8264508,0.02165651,0.4979907
53.20831108,0.0362017,-0.01901533,0.9921964,-0.5185596,0.0814057,1.535492
53.21839047,0.03375731,-0.005025825,0.9932564,-0.888029,-0.3368386,1.352404
53.22846937,0.03087791,-0.01324126,0.9907757,-1.072764,-1.113578,1.047256
53.23854876,0.0241086,-0.01231479,0.9854337,-1.19592,-2.069565,1.962699
53.24862814,0.02699498,0.000279906,0.994267,-0.4569814,-1.830568,1.474463
53.25870705,0.02697871,0.001699669,0.9898961,0.3435358,-0.3965878,-0.2343635
53.26878643,0.03810823,-0.01081861,0.991758,-0.3338249,1.873881,-0.9667177
53.27886581,0.03665885,-0.01470469,0.987356,-0.3954031,3.367611,-1.760101
53.28894568,0.03331951,-0.02723676,0.9887424,-0.3954031,3.546859,-1.760101
53.29902458,0.0366731,-0.01806846,0.989282,-0.4569814,2.411624,-1.149806
53.30910397,0.03330278,-0.02290849,0.9868222,-0.5185596,0.9776434,-0.5395111
53.31918335,0.02799883,-0.01612193,0.9931935,-0.3338249,0.2606533,0.07078408
53.32926226,0.03425861,-0.01080349,0.9946808,-0.9496073,-0.5160862,-0.417452
53.33934164,0.03721346,-0.02812641,1.000413,-0.6417161,0.3204024,-1.271865
53.34942102,0.03527067,-0.03203685,0.9921181,-0.5185596,0.4399008,0.3149022
53.35949993,0.03138804,-0.0262737,0.9887497,-1.072764,0.49965,0.9862267
53.36957932,0.02266758,-0.01618287,0.9839515,-1.011186,-0.5160862,1.718581
53.37965822,0.02989729,-0.01133697,0.9868951,-0.6417161,-1.053829,0.3149022
53.38973761,0.03238013,-0.02281924,1.001422,0.405114,-0.5160862,-1.271865
53.39981747,0.02849146,-0.01852383,0.9946384,0.7745835,0.6788976,-1.210836
53.40989685,0.03622557,-0.02284335,0.9970393,0.7745835,0.5593992,-2.614514
53.41745615,0.03770795,-0.02906956,1.003813,0.651427,0.8581451,-1.638042
53.42753506,0.03723997,-0.02370516,1.013578,-0.5801378,0.49965,-0.7225996
53.43761444,0.02853392,-0.02522138,1.003357,-1.072764,0.1411549,-0.295393
53.44769383,0.03481308,-0.02034619,1.011167,-1.811703,-0.2173402,-0.417452
53.45777273,0.03676453,-0.0329043,1.007683,-1.934859,0.6788976,-1.271865
53.46785212,0.03578779,-0.03632577,1.000364,-2.119594,1.276389,-0.5395111
53.47793102,0.03187898,-0.01655632,1.000487,-2.735376,0.9178943,-1.454954
53.48801088,0.02998764,-0.0252053,1.005789,-1.934859,0.2009041,-1.638042
53.49809027,0.02709259,-0.03005997,1.000896,-2.181172,0.1411549,-0.7836291
53.50816965,0.02851966,-0.02185761,1.001431,-1.873281,-0.3965878,0.9251972
53.51824856,0.03139208,-0.02238569,0.9936394,-1.626968,-0.2770894,0.009754575
53.52832794,0.02898672,-0.02140499,0.9965671,-1.319077,0.6191484,-1.271865
53.53840733,0.0260802,-0.02725415,0.9868014,-1.257499,0.2606533,-2.370396
53.54848623,0.0294764,-0.03302667,0.9887102,-1.811703,-0.2770894,-1.454954
53.55856562,0.0289675,-0.02920499,0.9828944,-1.688546,-0.2173402,-2.248337
53.568645,0.02173175,-0.02679014,0.9843745,-1.56539,-0.2173402,-1.760101
53.57872391,0.02464633,-0.02189348,0.9960806,-1.380655,0.02165651,-2.004219
53.58880329,0.02562647,-0.02525353,0.9984927,-1.072764,0.3204024,-2.980691
53.59888315,0.03091246,-0.0228653,0.9941235,-0.4569814,0.3204024,-4.4454
53.60896206,0.03046771,-0.0276342,1.002854,-0.6417161,0.6191484,-5.66599
53.61904144,0.03670006,-0.0296485,0.9882386,-1.257499,1.99338,-4.201282
53.62912083,0.03276335,-0.01866755,0.97079,-2.058016,1.276389,-1.94319
53.63919973,0.02987218,-0.02011947,0.9702969,-1.688546,-0.09784186,0.2538726
53.64927912,0.02741383,-0.001795699,0.97041,-0.4569814,-0.7550829,0.7421087
53.6593585,0.02938018,-0.007048045,0.9786491,0.7130053,-0.6355845,-0.417452
53.66943741,0.02503746,-0.006086779,0.9786583,1.821414,-0.6953337,0.009754575
53.67951679,0.01979223,-0.007417528,0.9981188,1.636679,-0.2173402,-0.7225996
53.68959618,0.02997106,-0.02039178,1.004358,1.205631,1.455637,-2.004219
53.69967508,0.02999896,-0.0203318,1.014091,-0.3338249,3.128614,-2.553485
53.70975494,0.02950601,-0.02762892,1.003828,-0.7648726,3.606608,-2.980691
53.71983433,0.0285099,-0.0218786,0.9980243,-1.072764,3.009116,-2.614514
53.72991371,0.03189338,-0.03252761,0.9911444,-1.19592,3.248113,-2.553485
53.73747253,0.02657516,-0.03110581,0.9877508,-0.6417161,2.471373,-1.638042
53.74755192,0.02412315,-0.02780083,0.9765806,-0.08751191,0.7386467,-0.6005406
53.7576313,0.02507387,-0.02298059,0.9761226,1.267209,-0.3965878,-1.088777
53.76771021,0.02703462,-0.03697345,0.9745763,1.698257,-0.3965878,-0.8446586
53.77778959,0.02318888,-0.02482706,0.989738,1.328788,-0.9343305,-0.1123045
53.78786898,0.02995632,-0.03157654,0.9892052,1.759835,-1.412324,-0.417452
53.79794884,0.02803988,-0.03155099,0.9935864,1.698257,-1.173327,1.047256
53.80802774,0.02178662,-0.02521742,1.004822,0.158801,-0.456337,2.145788
53.81810713,0.02995603,-0.01509001,1.003904,-0.4569814,0.3801516,2.206817
53.82818651,0.0323882,-0.01940748,1.007282,-0.8264508,1.336138,1.596522
53.83826542,0.02896674,-0.01417421,0.9961242,-0.8264508,1.634884,1.108286
53.8483448,0.03183574,-0.01228504,0.9893208,-0.3954031,1.814132,0.07078408
53.85842371,0.02796938,-0.01667017,0.9824846,0.5282705,1.037393,-0.5395111
53.86850309,0.03134852,-0.02344916,0.9775748,1.082475,0.0814057,-1.088777
53.87858248,0.03087743,-0.02342553,0.9814681,1.882992,-0.5758353,-0.6615701
53.88866139,0.02363518,-0.01956991,0.9819837,1.94457,-1.113578,-0.173334
53.89874125,0.03138107,-0.02192443,0.990236,1.636679,-0.5160862,-0.1123045
53.90882063,0.03041038,-0.01951389,0.9902514,1.267209,0.02165651,0.07078408
53.91890001,0.02898223,-0.01802023,0.9980474,0.9593183,-0.2173402,-0.6615701
53.92897892,0.02800797,-0.01367769,0.9985611,0.8361618,0.3801516,-1.577013
53.9390583,0.03284286,-0.01413235,1.002448,0.89774,1.037393,-1.760101
53.94913769,0.03236913,-0.02672224,0.994099,0.2203793,1.814132,-1.149806
53.9592166,0.03287122,-0.02134513,1.00581,0.3435358,0.4399008,-0.7836291
53.96929598,0.02850122,-0.0228671,0.9941254,0.89774,-1.591572,0.1318136
53.97937489,0.03431533,-0.0208648,1.005325,1.205631,-2.487809,1.230345
53.98945427,0.02607386,-0.01223537,0.9980847,1.513522,-2.547559,0.4979907
53.99953365,0.02509278,-0.01615109,0.988816,2.006148,-2.069565,-0.4784815
54.00961351,0.02366154,-0.01126966,0.9985791,1.020896,-1.412324,-0.295393
54.01969242,0.0265871,-0.01992704,1.00193,0.9593183,0.1411549,-1.088777
54.02977181,0.02320702,-0.02042381,0.9999837,0.5898488,0.8581451,-1.760101
54.03985119,0.03528463,-0.02327834,1.004823,-0.1490902,2.172627,-1.638042
54.0499301,0.03721936,-0.02714391,1.003339,-0.5801378,2.112878,-0.9056881
54.0574894,0.03233395,-0.01467494,0.9927124,-0.3338249,1.037393,-1.210836
54.06756878,0.03285123,-0.01847861,1.001448,0.09722282,0.7983959,-1.821131
54.07764816,0.0279717,-0.02248418,0.9780698,0.5898488,-0.3368386,-2.065249
54.08772707,0.01927294,-0.01428638,0.9790994,1.451944,-1.890318,-1.210836
54.09780693,0.02559022,-0.01223873,0.9975985,1.451944,-2.547559,-1.88216
54.10788631,0.02321585,-0.02767858,0.9965334,0.89774,-1.830568,-0.417452
54.11796522,0.02994983,-0.01704301,0.999999,0.09722282,-1.472073,0.1318136
54.12804461,0.02609742,-0.01703389,1.001948,-0.1490902,-0.9343305,-0.5395111
54.13812399,0.02754943,-0.02235558,0.9989954,-0.02593367,-0.2770894,-1.332895
54.1482029,0.02801541,-0.02093546,0.9946241,-0.2722467,0.9776434,-1.332895
54.15828228,0.0275313,-0.01803031,0.9965886,-0.3954031,1.395888,-1.454954
54.16836166,0.02270401,-0.01125539,1.001013,0.03564457,1.276389,-2.126278
54.17844057,0.02851904,-0.02379861,0.9994725,-0.2722467,1.515386,-1.88216
54.18851995,0.02896441,-0.01272446,0.9966198,-1.19592,1.336138,-1.577013
54.19859934,0.02656587,-0.02094253,0.9936519,-0.888029,0.5593992,-1.393924
54.2086792,0.03328496,-0.02197698,0.9814751,-0.2106684,-1.173327,-1.210836
54.21875811,0.02652495,-0.02248526,0.9780709,-0.02593367,-1.531822,0.3759317
54.22883749,0.02218271,-0.006975465,0.9913069,-0.02593367,-1.531822,0.4979907
54.2389164,0.02360977,-0.007501624,0.9840035,0.4666923,-1.352575,-0.6005406
54.24899578,0.0212348,-0.007425446,0.9966579,1.390366,-1.053829,-1.577013
54.25907517,0.02656045,-0.01610502,0.9961143,1.759835,-0.09784186,-2.736573
54.26915407,0.02848914,-0.01270982,0.9990532,0.4666923,0.2606533,-2.492455
54.27923346,0.03572271,-0.01755393,0.9946387,0.158801,1.156891,-2.797603
54.28931284,0.03768951,-0.02571479,1.000427,-0.8264508,1.93363,-2.553485
54.29939175,0.03189199,-0.02380209,0.9984967,-0.9496073,1.037393,-1.088777
54.30947113,0.02458916,0.004169112,0.9996452,-1.257499,-0.5758353,-0.6005406
54.31955099,0.02606457,-0.006436349,1.000066,-0.08751191,-0.09784186,0.009754575
54.32963038,0.02558232,-0.01080097,0.9961473,-0.1490902,0.9178943,-0.3564225
54.33970928,0.01447588,-0.000172712,1.0006,0.2819575,1.276389,-1.332895
54.34978867,0.02897589,-0.007365704,1.005411,0.5898488,1.21664,-2.553485
54.35986805,0.0207995,-0.0175081,1.003896,-0.08751191,1.93363,-2.492455
54.36994696,0.02993309,-0.02144326,0.99024,-0.6417161,1.694634,-2.126278
54.37750626,0.02173501,-0.01659987,0.9946553,-1.011186,1.694634,-1.515983
54.38758564,0.02751208,-0.01710179,0.9907549,-0.6417161,1.634884,-1.515983
54.3976655,0.02172788,-0.01710011,0.9917325,-0.888029,1.156891,-1.699072
54.40774441,0.02415075,-0.02434709,0.9892535,-0.888029,0.3204024,-0.2343635
54.41782379,0.02844791,-0.01522305,0.982493,-0.7648726,-0.5758353,-0.05127494
54.42790318,0.02606658,-0.01322087,0.9946724,-0.2722467,-0.5160862,-1.027747
54.43798208,0.02125695,-0.01659123,0.9961154,0.03564457,-0.3965878,-0.9667177
54.44806147,0.0202799,-0.01225468,0.995656,-0.2106684,-0.2173402,-0.9056881
54.45814085,0.01934407,-0.02286194,0.9960788,-0.02593367,-0.03809267,-1.638042
54.46821976,0.02514345,-0.02768015,0.9960452,-0.7032943,0.7983959,-0.1123045
54.47829914,0.02467205,-0.02426275,1.002879,-1.56539,2.112878,0.07078408
54.48837805,0.02464168,-0.02335823,0.9931521,-1.750125,2.71037,-0.2343635
54.49845743,0.02659376,-0.02524681,0.9994652,-1.503812,1.93363,-0.2343635
54.50853729,0.02125989,-0.02046424,0.9936588,-1.257499,1.276389,-0.4784815
54.51861668,0.02074603,-0.01471357,0.9878548,-0.8264508,1.097142,0.3149022
54.52869558,0.02599947,-0.009485815,0.9747439,-0.3338249,0.6191484,0.1318136
54.53877497,0.01978385,-0.02489256,0.9795213,0.09722282,0.7386467,-0.173334
54.54885435,0.02318904,-0.02434181,0.9902276,-0.2722467,0.5593992,-0.6615701
54.55893326,0.01979253,-0.0195398,0.9873396,-0.3954031,0.7386467,-0.7836291
54.56901264,0.02173221,-0.02533438,0.9858431,-0.7032943,0.5593992,-0.6005406
54.57909203,0.02269579,-0.02388091,0.9868245,-0.5185596,-0.456337,-0.417452
54.58917093,0.02466585,-0.02621575,0.9989742,-0.4569814,-0.6953337,0.2538726
54.59925032,0.02804842,-0.02231923,1.004835,-0.8264508,0.2606533,-0.173334
54.60933018,0.01839817,-0.02136792,1.003875,-1.257499,-0.03809267,0.3149022
54.61940956,0.02564368,-0.02812604,1.001881,-1.134342,-0.456337,0.1928431
54.62948847,0.02465702,-0.02332524,0.9985052,-0.888029,-0.157591,0.8031382
54.63956785,0.02366509,-0.01756593,0.9941612,-1.072764,0.7386467,1.230345
54.64964676,0.02268262,-0.01275613,0.9922448,-1.011186,0.9776434,0.9251972
54.65972614,0.02754152,-0.02964634,0.9897054,-1.134342,0.49965,0.7421087
54.66980553,0.02510967,-0.02435836,0.9873063,-0.9496073,0.3204024,1.291374
54.67988443,0.02559641,-0.0233785,0.989745,-1.072764,0.4399008,1.596522
54.68744373,0.02997973,-0.0281318,1.000418,-1.56539,0.5593992,1.962699
54.69752359,0.02850386,-0.01461784,1.002448,-1.996438,1.515386,2.206817
54.70760298,0.02123882,-0.01226596,0.9937086,-1.996438,1.336138,2.511965
54.71768236,0.03043796,-0.02915293,0.9911659,-1.750125,-0.2173402,2.572994
54.72776127,0.02418252,-0.02524861,0.999467,-1.56539,-1.113578,4.40388
54.73784065,0.03137519,-0.01417841,0.9951491,-1.442233,-1.531822,6.173736
54.74791956,0.03673679,-0.02811477,1.00236,0.03564457,-1.651321,6.234765
54.75799894,0.03766286,-0.02625702,0.9906915,-0.2106684,-1.531822,9.103152
54.76807833,0.04156084,-0.02325866,1.007252,0.405114,-2.547559,11.60536
54.77815723,0.05319927,-0.0395986,1.014929,-1.873281,-3.384047,13.80242
54.7882371,0.04259444,-0.04687029,1.010027,0.09722282,-3.682793,17.64728
54.79831648,0.05519554,-0.02975419,1.047104,0.89774,-4.818027,19.72229
54.80839586,0.05523581,-0.05197376,1.04113,0.2819575,-3.802291,23.62818
54.81847477,0.05424312,-0.03991219,1.042177,-0.3954031,-4.041288,29.42598
54.82855415,0.04225646,-0.07517055,1.034673,-3.104846,-2.726806,36.5054
54.83863354,0.0267952,-0.07088078,1.028385,-7.723215,-2.248812,46.75836
54.84871244,0.042201,-0.04377019,1.043623,-11.04844,-3.384047,54.81425
54.85879183,0.04504024,-0.05212827,1.017293,-12.52632,-3.742542,61.95471
54.86887074,0.0695418,-0.0251548,1.009165,-14.31209,-3.742542,69.82751
54.87895012,0.06755579,-0.01170118,1.001462,-16.77522,-3.802291,76.4187
54.8890295,0.04802457,-0.03398888,1.065089,-23.24093,4.861341,84.4746
54.89910841,0.0955727,-0.02321837,1.00721,-26.25826,0.0814057,102.4173
54.90918827,0.08682622,-0.003000256,1.002474,-24.28776,-1.292826,102.9055
54.91926765,0.06076387,0.005663846,1.003033,-20.03886,-0.8745813,102.7224
54.92934704,0.06031555,-0.01463008,0.9965841,-18.43783,-4.937526,106.6283
54.93942595,0.05016631,-0.00935086,0.9937041,-15.91312,-9.896709,108.6423
54.94950533,0.04964317,0.00656309,0.9938011,-9.016357,-12.16718,105.5298
54.95958471,0.03844948,0.02767192,0.977393,-5.629554,-11.62944,103.6989
54.96966362,0.02538566,0.01496171,0.9510486,-5.567976,-10.91245,102.9055
54.979743,0.0273624,0.02476414,0.9764106,-4.397989,-7.088496,101.5018
54.98982239,0.03666565,-0.03263199,0.973622,-4.705881,-0.456337,99.79301
54.9999013,0.0182494,-0.007140296,0.9650318,-4.829037,6.41482,101.6239
55.00746107,0.0414714,-0.02830012,0.9716982,-4.582724,9.462028,102.7224
55.01754046,0.0550083,-0.04858361,0.9652386,-5.629554,11.7325,108.093
55.02761984,0.01633975,-0.03813481,0.9439206,-6.737963,12.27024,110.5342
55.03769875,0.00954674,-0.01980228,0.9459836,-2.735376,10.65701,109.6798
55.04777813,0.01683222,-0.04102197,0.944876,-1.380655,9.760773,110.6563
55.05785751,0.000465215,-0.03175744,0.9634362,1.698257,5.996575,109.6798
55.06793642,-0.00235808,-0.04324668,0.9774805,0.2819575,2.770119,111.4496
55.0780158,-0.001292863,-0.06824508,0.9899799,-0.5801378,2.053129,114.196
55.08809519,-0.003284315,-0.06304671,0.9729814,0.2203793,1.037393,111.3276
55.09817505,0.005971388,-0.08175172,0.9884324,1.390366,-0.7550829,110.2901
55.10825396,-0.01826316,-0.05827133,0.9671825,2.806665,-1.890318,108.7033
55.11833334,-0.01295982,-0.05827038,0.9666919,2.806665,-3.443796,106.8724
55.12841225,-0.009551995,-0.05819888,0.9778818,0.2203793,-5.236272,107.7879
55.13849163,-0.02400614,-0.06448495,0.9768815,-2.119594,-7.924985,108.7033
55.14857101,-0.02500301,-0.04806811,0.9803882,-5.260085,-10.67345,111.3276
55.15864992,-0.01916999,-0.04796482,0.9964428,-10.49424,-8.582227,114.6842
55.16872931,-0.02832344,-0.06686345,0.9827098,-12.40316,-8.283481,117.7357
55.17880869,-0.04291333,-0.04434637,0.9604734,-22.62515,-5.415519,132.7489
55.1888876,-0.02352841,-0.0960139,0.9470062,-21.57832,-5.415519,130.0026
55.19896746,-0.02878621,-0.1191929,0.94249,-21.33201,-10.6137,130.4908
55.20904684,-0.02824152,-0.1374852,0.9477314,-17.51415,-16.46912,124.51
55.21912622,-0.03602939,-0.1095203,0.9479071,-14.37366,-19.33708,124.9372
55.22920513,-0.05391502,-0.06355774,0.9744771,-13.94262,-18.20185,122.8011
55.23928452,-0.04906105,-0.04360487,1.003305,-12.71105,-13.60116,121.3975
55.2493639,-0.07945853,-0.02765925,1.012184,-13.26526,-5.714265,124.693
55.25944281,-0.07273908,0.02464792,1.048019,-12.89579,0.2606533,125.5475
55.26952219,-0.05283004,-0.000743717,1.072667,-15.17418,5.578331,123.7166
55.2796011,-0.03336034,-0.04447028,1.095744,-14.98945,4.682093,119.6276
55.28968048,-0.01594563,-0.08119544,1.081396,-18.99203,-7.028747,117.4916
55.29975987,-0.03788578,-0.03517338,1.039844,-17.9452,-15.21439,112.7313
55.30983973,0.000202402,-0.06038101,1.013871,-13.08052,-19.21758,103.3327
55.31991863,0.02853887,-0.0358789,0.9955062,-8.277418,-20.89056,96.61947
55.32747793,0.01106506,-0.04874231,0.9448335,-7.723215,-19.27733,93.26285
55.33755732,-0.00401377,-0.06454841,0.8858687,-0.7648726,-19.39683,90.94373
55.3476367,-0.02430234,-0.08403355,0.8565691,3.36087,-20.83081,91.12682
55.35771561,-0.007333119,-0.08867551,0.8837783,9.33396,-24.89375,87.40401
55.36779499,-0.02373702,-0.0901585,0.879889,14.26022,-23.99752,82.94886
55.3778739,-0.01017621,-0.05753465,0.9292248,16.23072,-26.32773,80.62974
55.38795376,0.0376225,-0.08259411,0.9261163,8.348708,-22.20504,87.28196
55.39803314,-0.03559298,-0.07858385,0.9597733,13.02865,-12.94392,73.97752
55.40811253,-0.001830589,-0.05866637,0.9793329,10.31921,-6.431255,72.20766
55.41819143,-0.02058562,-0.0857225,0.9733437,7.856081,-4.459532,70.98708
55.42827082,-0.02249043,-0.07985295,0.9870059,8.841333,-7.924985,68.5459
55.4383502,-0.04367111,-0.08657531,0.9942807,7.91766,-10.3747,64.51795
55.44842911,-0.02676264,-0.08504398,1.005956,5.823999,-9.538214,62.99221
55.45850849,-0.04413584,-0.07974917,1.006488,6.624516,-6.431255,56.33999
55.46858788,-0.0325084,-0.09126358,1.014682,11.61235,-0.9343305,47.97895
55.47866678,-0.01425497,-0.04194327,1.033945,13.02865,3.248113,46.39219
55.48874664,-0.01478636,-0.05174761,1.008095,12.0434,6.175823,45.78189
55.49882603,-0.01812831,-0.05070766,1.020756,13.15181,8.386542,39.12967
55.50890541,-0.001178175,-0.0713929,1.026944,14.19864,8.506041,34.55246
55.51898432,-0.007417509,-0.08248637,1.027367,17.33913,6.474569,31.13481
55.5290637,0.009485061,-0.09066606,1.028278,14.93758,1.455637,25.64215
55.53914261,0.01828935,-0.121913,1.043167,15.18389,-3.384047,21.24802
55.54922199,0.0167143,-0.09164016,1.025834,13.64444,-8.163982,15.14507
55.55930138,0.03310734,-0.1023034,1.015051,12.53603,-13.00367,11.0561
55.56938028,0.01609071,-0.08467066,0.9830542,11.85867,-16.11062,11.54433
55.57945967,0.02517471,-0.07368001,0.9655958,11.61235,-16.34962,11.54433
55.58953905,0.02130633,-0.08000915,0.9563146,9.395538,-15.57288,13.43625
55.59961891,0.01544062,-0.06902964,0.9388676,7.856081,-12.40617,15.75537
55.60969782,0.02174427,-0.06604148,0.9534794,7.363455,-9.478465,11.84948
55.6197772,0.02759277,-0.08287698,0.9596987,8.471864,-4.579031,8.431828
55.62985659,0.03059118,-0.09040791,0.9893342,5.885578,0.1411549,5.56344
55.63741541,0.03303992,-0.1039032,0.9902238,4.03823,3.965103,2.878142
55.64749479,0.02432829,-0.1054314,0.9780557,2.621931,6.116074,0.6810792
55.65757418,0.01500053,-0.06796952,0.9544461,5.023482,5.160087,0.3759317
55.66765308,0.03053352,-0.09198663,0.9679136,5.331373,3.845605,2.328876
55.67773294,0.01411461,-0.0707108,0.9792475,5.639265,3.785855,6.78403
55.68781233,0.01464318,-0.087098,0.9806075,6.50136,2.411624,7.028149
55.69789171,0.007009954,-0.09856383,0.9990351,5.885578,0.9776434,5.868588
55.70797062,0.01042815,-0.1139874,0.9999121,2.9914,0.9178943,5.258293
55.71805,0.01092235,-0.09844398,1.018011,1.882992,2.172627,2.023729
55.72812939,0.01808727,-0.09131278,1.000531,2.129305,5.399084,-2.492455
55.73820829,-0.00859972,-0.03543336,0.9940776,3.668761,5.279585,-4.750547
55.74828768,-0.008646348,-0.01128777,0.9995769,4.284543,4.323598,-7.985111
55.75836659,0.008843232,-0.0318497,1.025716,5.208217,2.71037,-7.863052
55.76844597,0.0195897,-0.0480344,1.058699,3.607183,2.71037,-6.581432
55.77852583,0.0234373,-0.05872204,1.045493,-0.02593367,2.172627,-4.811577
55.78860521,0.02629917,-0.06606162,1.027928,-1.873281,-0.456337,-5.238783
55.79868412,0.007873738,-0.06919973,0.9904537,-2.181172,-4.220535,-5.055695
55.8087635,0.002469354,-0.05826486,0.9657068,-2.920111,-9.119969,-4.38437
55.81884289,2.39E-05,-0.06512915,0.9476622,-2.304329,-12.16718,-4.4454
55.8289218,-0.01255073,-0.06473124,0.9355088,-0.02593367,-12.58542,-5.421872
55.83900118,-0.004366144,-0.06814887,0.927696,-0.1490902,-12.10743,-4.933636
55.84908056,-0.01884245,-0.07836193,0.9154797,0.405114,-11.56969,-4.628488
55.85915947,-0.03094994,-0.04259731,0.929818,1.513522,-11.21119,-5.055695
55.86923885,-0.02029536,-0.04103767,0.9468509,2.560353,-6.07276,-4.079223
55.87931824,-0.02845857,-0.04048356,0.9595125,2.437196,0.6788976,-4.38437
55.8893981,-0.01917806,-0.05574083,0.9866632,1.821414,6.594067,-2.492455
55.89947701,-0.01377415,-0.07249571,1.006022,-0.7032943,12.68848,-1.210836
55.90955639,-0.01709672,-0.06753476,1.028926,-4.02852,15.85519,0.1928431
55.9196353,-0.01852704,-0.06847035,1.033787,-6.676384,16.57218,3.06123
55.92971468,-0.002673735,-0.06277043,1.017751,-8.462152,17.82691,4.464909
55.93979406,0.003063035,-0.06287408,1.000228,-8.462152,18.6634,6.173736
55.94987297,-0.03915078,-0.01593862,0.9528571,-5.999023,17.05017,3.793585
55.95743227,-0.00632686,-0.01487767,0.9645171,-3.782207,15.85519,4.464909
55.96751213,-0.02273698,-0.03577069,0.9410453,-1.257499,14.18221,1.962699
55.97759152,-0.03334753,-0.02608259,0.9493847,0.9593183,15.07845,2.328876
55.9876709,-0.01340132,-0.07030604,0.9700254,-0.2722467,15.49669,-0.1123045
55.99774981,-0.03181743,-0.05305761,0.954086,-3.966941,16.03444,2.634024
56.00782919,-0.01828532,-0.05783407,0.959886,-6.737963,14.71996,5.319323
56.0179081,-0.01355021,-0.02164959,0.9620484,-9.632139,14.66021,9.34727
56.02798748,0.03049201,-0.06492054,0.9778103,-13.81946,15.43695,12.0936
56.03806686,-0.007719995,-0.03028082,0.9692908,-13.32683,15.07845,15.08404
56.04814577,0.00199965,-0.06696675,0.962248,-15.78996,15.43695,14.65684
56.05822516,-0.04829803,-0.04161277,0.9351901,-10.92528,13.58472,11.42227
56.06830502,-0.06031412,-0.04686955,0.9444131,-3.474315,8.147545,3.18329
56.0783844,-0.04622215,-0.08784752,0.9446401,5.639265,4.144351,-2.248337
56.08846331,-0.03988983,-0.07800887,0.9753518,7.425034,0.2009041,-2.614514
56.09854269,-0.04171158,-0.0913574,1.000576,6.070312,-0.3368386,-4.994665
56.10862207,-0.04215788,-0.09225029,1.01225,2.806665,-0.6355845,-5.66599
56.11870098,-0.05232957,-0.08314005,1.005014,0.7130053,-3.802291,-4.4454
56.12878037,-0.05379879,-0.07494584,1.004578,2.745087,-6.07276,-5.177754
56.13885975,-0.04760671,-0.04601206,1.003776,5.023482,-6.431255,-5.727019
56.14893866,-0.0350794,-0.05039095,0.9959535,6.686095,-4.698529,-4.994665
56.15901804,-0.05054593,-0.04950694,0.9847786,8.410286,-4.758278,-2.065249
56.1690979,-0.06119057,-0.03746756,0.9834,8.96449,-4.101037,-0.7836291
56.17917681,-0.03748461,-0.06201778,0.9876124,8.718177,-3.623044,-2.004219
56.18925619,-0.03646728,-0.07111686,0.9977753,7.979238,-2.846304,-2.736573
56.19933558,-0.05623019,-0.08129489,0.9918893,4.4077,-2.248812,-3.224809
56.20941448,-0.02008181,-0.06627911,0.9982788,3.422448,-1.233076,-4.140252
56.21949387,-0.0221134,-0.0514687,0.9759858,2.498774,2.172627,-4.4454
56.22957325,-0.02118035,-0.0452317,0.9706702,4.469278,4.622344,-3.713045
56.23965216,-0.002909905,-0.02981897,0.9653969,5.392951,6.235572,-2.248337
56.24973154,-0.02703121,-0.05749625,0.9375104,6.439782,2.829868,-1.088777
56.25981092,-0.02404567,-0.07911745,0.9500289,6.747673,-2.607308,-0.2343635
56.2673707,-0.01628753,-0.07805122,0.9656011,5.08506,-5.774014,0.5590202
56.27744961,0.008430953,-0.1180148,0.9726387,1.575101,-8.34323,1.230345
56.28752899,-0.02406194,-0.06896918,0.9534968,-1.072764,-12.22693,1.535492
56.29760838,-0.03564381,-0.06754004,0.9520545,-4.829037,-12.64517,0.6200497
56.30768728,-0.01544296,-0.03903009,0.9590247,-4.151676,-9.418715,-1.577013
56.31776667,-0.03049201,-0.02276764,0.9391837,-3.597472,-4.758278,-1.760101
56.32784605,-0.03436379,-0.02667952,0.9308905,-1.873281,-2.906054,-3.041721
56.33792496,-0.01685872,-0.05545172,0.9550332,-2.24275,-1.890318,-4.38437
56.34800482,-0.01439293,-0.05921197,0.9705802,-2.427485,-0.157591,-5.116724
56.37824249,0.004464515,-0.07363849,0.9748576,-6.430071,11.31425,-2.492455
56.38832188,0.000124107,-0.08721977,0.9626132,-12.34158,11.67275,2.145788
56.39840126,-0.02267083,-0.06860281,0.9345199,-13.44999,9.043783,3.305348
56.40848017,-0.03097133,-0.04409805,0.9210499,-14.74313,4.024852,3.366378
56.41855955,-0.04328352,0.02711026,0.8961875,-11.47949,2.292126,4.831086
56.42863846,-0.00758021,0.03202239,0.9064088,-9.878452,4.263849,1.77961
56.43871784,-0.02483905,0.01137758,0.9233283,-8.708466,8.386542,1.962699
56.4487977,-0.01647595,-0.02657024,0.9464491,-6.368493,11.4935,-2.065249
56.45887709,0.002548867,-0.05372965,0.9973643,-5.383241,15.67594,-2.065249
56.46895599,-0.01756845,-0.08254491,1.019103,-9.940031,17.34892,-1.638042
56.47903538,-0.01132106,-0.07240395,1.020619,-14.37366,19.20115,1.169315
56.48911476,-0.003734002,-0.04842956,0.9974013,-17.32942,21.47161,3.000201
56.49919367,-0.0283233,-0.08383523,0.9675217,-17.51415,20.81437,3.366378
56.50927305,-0.008671325,-0.03704207,0.9677906,-16.34417,17.70742,7.394326
56.51935244,-0.02414545,-0.04684257,0.9443855,-11.78738,15.3772,5.441381
56.52943134,-0.04047297,-0.07095239,0.9466848,-2.858533,12.15074,2.817112
56.53951073,-0.04960966,-0.072358,0.9544691,5.947156,6.713565,1.901669
56.54959059,-0.0529414,-0.08293407,0.9602468,10.75026,-0.5758353,1.657551
56.5596695,-0.04272365,-0.07885256,0.9953001,15.36863,-8.522478,3.732555
56.56974888,-0.01893478,-0.1100134,1.022343,15.55336,-9.299217,3.793585
56.57982826,-0.02715267,-0.08872541,1.034644,12.65918,-8.044484,6.661972
56.58738756,-0.02961799,-0.07041664,1.032324,8.656599,-6.252008,5.258293
56.59746647,-0.01571786,-0.06622489,1.006548,8.533442,-5.176522,2.145788
56.60754585,-0.02143325,-0.07771327,1.021081,7.979238,-8.163982,5.380352
56.61762524,-0.03507863,-0.05669321,0.9905626,10.19606,-10.13571,2.756083
56.6277051,-0.03410083,-0.07606055,0.9777922,10.56552,-11.39044,2.939171
56.637784,-0.04034247,-0.07261147,0.99047,9.33396,-12.88417,2.267847
56.64786339,-0.03099549,-0.1066376,1.023833,5.885578,-11.56969,5.868588
56.6579423,-0.02283152,-0.1091297,1.0097,4.592434,-9.418715,3.06123
56.66802168,-0.03019077,-0.0788552,0.9933439,2.560353,-12.04768,4.40388
56.67810106,-0.04190869,-0.0539577,0.965767,3.176135,-14.43765,4.34285
56.68817997,-0.04291533,-0.03756186,0.9658673,6.686095,-16.28987,1.84064
56.69825935,-0.03366692,-0.06161662,0.9739866,7.671347,-16.28987,-0.2343635
56.70833874,-0.02743362,-0.04326238,0.9779862,7.732925,-16.11062,-3.16378
56.71841764,-0.02942585,-0.03612602,0.9624593,7.979238,-12.76467,-5.177754
56.72849751,-0.02361219,-0.02685095,0.9800293,7.609768,-10.2552,-5.177754
56.73857689,-0.03086065,-0.02494834,0.9766402,7.54819,-8.880973,-4.506429
56.74865627,-0.03079822,-0.04760517,0.9779624,7.055564,-7.56649,-3.713045
56.75873518,-0.02160511,-0.04850286,0.9876822,7.055564,-6.371506,-2.980691
56.76881456,-0.05394261,-0.06701149,0.9618041,6.13189,-6.730001,-1.88216
56.77889395,-0.02870698,-0.08507841,1.000604,2.683509,-5.953262,1.535492
56.78897286,-0.01713687,-0.07537975,1.007954,0.9593183,-3.742542,3.366378
56.79905224,-0.01717825,-0.06964971,0.9987427,-1.257499,0.2009041,1.901669
56.80913115,-0.02017357,-0.06550655,0.96714,-1.811703,2.770119,1.718581
56.81921053,-0.02459762,-0.02689666,0.9727306,-1.934859,4.801591,0.2538726
56.82929039,-0.02363467,-0.03174844,0.9678342,-1.996438,8.804786,0.4369612
56.83936977,-0.009718584,-0.03431122,0.9415308,0.651427,12.62873,-1.088777
56.84944868,-0.0189512,-0.01749623,0.9323942,-0.4569814,16.87093,-3.774075
56.85952807,-0.009810769,-8.03E-05,0.9402788,0.8361618,17.28917,-4.4454
56.86960745,-0.05569355,-0.01141625,0.9061821,1.328788,15.61619,-3.774075
56.87968636,-0.02749095,-0.02641356,0.9732223,2.683509,12.68848,-1.088777
56.88976574,-0.02166216,-0.06123335,0.9564616,7.486612,7.251308,1.047256
56.89984512,-0.04335622,-0.05638503,0.9633203,6.747673,3.726106,3.06123
56.9074049,-0.00270199,-0.1118078,0.9639259,4.900326,0.3801516,5.990647
56.91748381,-0.02744014,-0.05055014,0.9691829,3.791917,-3.204799,7.333296
56.92756319,-0.01437803,-0.03444917,0.997981,4.284543,-6.8495,5.746529
56.93764257,-0.01587993,-0.01953644,0.9922332,3.976652,-8.641976,3.305348
56.94772148,-0.009539267,-0.0402296,0.9984288,3.730339,-9.299217,1.474463
56.95780087,-0.01391143,-0.03108805,0.9955679,5.023482,-10.67345,1.718581
56.96788025,-0.01146283,-0.03197578,1.007726,7.055564,-13.36216,2.878142
56.97795916,-0.001762819,-0.01681783,1.040414,6.193469,-14.0194,2.450935
56.98803854,0.003108016,-0.02689354,1.048135,3.853496,-10.55395,0.3149022
56.99811792,0.000256828,-0.03407848,1.056366,3.791917,-10.55395,-2.004219
57.00819778,0.004661363,-0.05963758,1.055721,3.36087,-12.04768,-3.10275
57.01827669,-0.008835252,-0.06157367,1.056206,2.621931,-13.42191,-5.543931
57.02835608,0.01963463,-0.06878921,1.055654,1.020896,-14.07915,-7.313787
57.03843546,0.01662569,-0.04624851,1.035842,2.314039,-12.70492,-5.60496
57.04851437,0.01020676,-0.02184429,1.005824,4.469278,-9.299217,-4.079223
57.05859375,0.007186368,0.01715896,0.9968179,5.823999,-7.865236,-4.079223
57.06867266,0.001392853,-0.003225893,0.9762607,9.149225,-5.953262,-4.933636
57.07875204,-0.01367415,0.03530411,0.97018,11.55078,-7.984735,-4.933636
57.08883143,0.005202972,0.01704056,0.9778406,14.07548,-9.239468,-6.703492
57.09891033,0.005225139,0.02096755,0.9890565,16.47704,-8.462729,-7.557905
57.10899019,0.02711075,0.000528833,1.034658,17.83176,-5.236272,-10.36526
57.11906958,0.0244074,-0.03688803,1.067036,16.66177,-3.443796,-9.44982
57.12914896,0.03321184,-0.05892117,1.090253,10.0729,3.965103,-7.924082
57.13922787,0.02447229,-0.09105917,1.040916,5.947156,4.861341,-2.553485
57.14930725,-0.002717111,-0.04152736,1.021773,5.146638,1.276389,-1.94319
57.15938664,0.01062577,-0.02779891,0.9785375,3.607183,0.1411549,-3.468927
57.16946554,0.02499906,0.03504858,1.002265,10.93499,4.801591,-5.116724
57.17954493,0.0172589,0.02917183,0.9886106,11.67393,10.65701,-6.88658
57.18962383,0.01874824,0.00986784,0.9860591,12.41287,14.95895,-4.262311
57.19970322,-0.001951571,0.007507091,0.9967663,12.16656,14.54071,-1.332895
57.20978308,-0.00474201,-0.005851162,1.020531,11.36604,13.04698,-0.7225996
57.21986246,0.005453091,-0.01588092,1.035061,9.210803,12.86773,0.4369612
57.22742176,-0.004619427,-0.01916527,1.051107,6.13189,12.15074,0.8641677
57.23750067,-0.000158638,-0.05187717,1.063557,2.129305,8.386542,0.3149022
57.24758005,-0.01319672,-0.05822814,1.05185,-2.365907,2.829868,1.047256
57.25765944,-0.02187333,-0.06356037,1.048418,-3.966941,-5.415519,0.9251972
57.26773834,0.001284058,-0.07322113,1.042989,-5.136928,-11.15144,0.1318136
57.2778182,-0.000718064,-0.04476972,1.043163,-5.506398,-10.4942,2.939171
57.28789759,-0.02071603,0.01195029,1.015786,-3.843785,-10.67345,2.572994
57.29797697,-0.01309736,0.03453791,1.002292,-1.134342,-10.3747,-1.027747
57.30805588,-0.02130085,0.04421881,1.009169,2.683509,-9.358967,-0.295393
57.31813526,-0.02175568,0.02536565,1.001756,4.099808,-8.582227,-0.9056881
57.32821417,0.002470972,0.01205154,1.029394,5.516108,-4.937526,-0.5395111
57.33829355,-0.01102392,0.02854599,1.047022,4.530856,0.0814057,1.474463
57.34837294,0.004467078,0.01268218,1.05324,2.745087,2.949367,2.206817
57.35845184,-0.001836563,0.01405828,1.042548,0.3435358,4.323598,2.695053
57.36853123,-0.005705549,0.02324518,1.046986,-0.8264508,2.292126,4.037703
57.37861109,-0.000830223,0.009784715,1.053227,-3.905363,1.097142,3.12226
57.38869047,-0.009496143,-0.001343542,1.0483,-4.952193,-0.5758353,5.075204
57.39876938,0.002168959,-0.004048472,1.077471,-5.07535,-3.443796,3.610496
57.40884876,-0.007986787,-0.006057014,1.065788,-5.383241,-3.981539,0.9251972
57.41892815,0.005017188,-0.01044755,1.056019,-5.691133,-3.92179,0.5590202
57.42900705,-0.01008703,0.01200019,1.02259,-3.782207,-5.475268,0.3149022
57.43908644,-0.002866491,-0.0117837,0.9966499,-1.011186,-9.896709,0.4369612
57.44916534,-0.02089161,0.03824321,0.9784759,-1.503812,-11.80868,1.901669
57.45924473,-0.01896897,0.0358064,0.9740801,2.498774,-15.03514,3.549467
57.46932411,-0.02092182,0.05272576,0.980997,4.654013,-13.8999,7.394326
57.47940397,2.16E-05,0.01487727,1.018707,6.562938,-13.72066,3.12226
57.48948288,0.01909291,-0.01945594,1.079311,3.36087,-5.714265,7.943592
57.49956226,0.009474427,-0.02813467,1.080726,-0.2722467,-0.9940796,6.356824
57.50964165,0.01914992,-0.04163952,1.079176,-4.397989,2.053129,6.417854
57.51972055,0.006922774,-0.01825511,1.040885,-5.383241,3.128614,5.258293
57.52979994,0.0305804,-0.01963325,1.049131,-4.213254,6.175823,5.990647
