time,acc_x,acc_y,acc_z,gyro_x,gyro_y,gyro_z
0,-0.03393555,0.02490234,0.8164063,-0.116632483,-0.142957389,-0.099716719
0.009578,-0.03198242,0.02758789,0.8095703,0.135276517,0.047881611,-0.099716719
0.018865,-0.02905273,0.02099609,0.826416,0.066573517,-0.051354389,0.030054281
0.028257,-0.03051758,0.02124023,0.8171387,-0.070830483,0.040248611,-0.061548819
0.037597,-0.03393555,0.01855469,0.8173828,-0.063197483,-0.142957389,0.167458781
0.046955,-0.0300293,0.02392578,0.8283691,0.051306517,-0.097156389,-0.145518219
0.056355,-0.03173828,0.02246094,0.8156738,0.013138517,0.086049611,-0.092083219
0.065691,-0.03417969,0.01782227,0.8215332,-0.047929483,-0.058988389,-0.076815919
0.07497701,-0.02905273,0.02734375,0.8200684,-0.185334483,-0.020820389,0.114023681
0.08432199,-0.03076172,0.02416992,0.8220215,-0.002128483,0.215820911,0.007153481
0.100094,-0.02856445,0.02832031,0.8222656,0.112375517,0.200553711,0.060588581
0.109642,-0.03735352,0.02539063,0.8139648,0.066573517,0.055515611,-0.252388519
0.119004,-0.03295898,0.02172852,0.8222656,0.036039517,-0.226927389,0.136924481
0.128346,-0.03417969,0.02880859,0.8205566,0.142909517,0.093683611,0.075855781
0.137678,-0.03735352,0.02441406,0.8222656,0.020772517,0.185286611,-0.099716719
0.146947,-0.03344727,0.02148438,0.8205566,-0.086097483,-0.371965389,-0.023380919
0.156308,-0.03417969,0.02832031,0.8120117,-0.131899483,-0.165858389,-0.061548819
0.165617,-0.03466797,0.02319336,0.8183594,0.173444117,0.108950611,-0.198953419
0.174905,-0.02929688,0.02661133,0.8322754,-0.108998483,0.009713611,-0.076815919
0.18418,-0.03173828,0.02392578,0.8200684,-0.017395483,-0.036087389,-0.008113719
0.19946,-0.03295898,0.02514648,0.8190918,-0.070830483,0.024981611,-0.038648019
0.209003,-0.02954102,0.01977539,0.8186035,-0.055563483,-0.066621389,0.030054281
0.21839,-0.03222656,0.0234375,0.8168945,0.074207517,-0.028454389,-0.122617519
0.227707,-0.03076172,0.02294922,0.8200684,-0.223502483,-0.219293389,-0.023380919
0.237054,-0.03588867,0.01977539,0.8210449,-0.040296483,0.192920111,0.091122981
0.24639,-0.03369141,0.02539063,0.8203125,0.249780017,-0.219293389,0.182725981
0.255688,-0.03100586,0.02539063,0.8266602,0.020772517,0.002080611,-0.137884719
0.264946,-0.02929688,0.02001953,0.8212891,0.089474517,-0.135324389,-0.023380919
0.274306,-0.03125,0.02490234,0.8151855,-0.025029483,0.086049611,0.091122981
0.283554,-0.02685547,0.02734375,0.8254395,0.135276517,0.055515611,0.114023681
0.29901,-0.02905273,0.02075195,0.8220215,0.036039517,0.009713611,0.052954981
0.308552,-0.03125,0.02636719,0.8144531,-0.055563483,0.108950611,0.030054281
0.31788,-0.03100586,0.02050781,0.8144531,-0.108998483,0.108950611,-0.084449519
0.327246,-0.03271484,0.02148438,0.8217773,-0.002128483,-0.020820389,-0.023380919
0.33657,-0.03613281,0.02612305,0.8283691,-0.047929483,0.124217611,0.091122981
0.345844,-0.0300293,0.02050781,0.8195801,-0.063197483,0.024981611,-0.023380919
0.355202,-0.02807617,0.01977539,0.8146973,0.120008517,0.055515611,0.045321481
0.3645,-0.02636719,0.02075195,0.8171387,-0.108998483,-0.005553389,0.144558081
0.373791,-0.03295898,0.02416992,0.8256836,-0.032662483,0.154752211,-0.145518219
0.383132,-0.02978516,0.02197266,0.8261719,-0.070830483,-0.013186389,0.281962681
0.398749,-0.0324707,0.02758789,0.8115234,0.135276517,-0.120057389,-0.069182419
0.408324,-0.02661133,0.02539063,0.8208008,0.051306517,-0.005553389,0.075855781
0.417686,-0.03198242,0.02099609,0.815918,0.089474517,-0.219293389,0.045321481
0.427013,-0.03149414,0.02148438,0.8149414,0.112375517,0.055515611,-0.046281619
0.436382,-0.03930664,0.02734375,0.8200684,0.097108517,-0.074255389,-0.160785419
0.44575,-0.03198242,0.02661133,0.8200684,-0.078464483,-0.028454389,0.037687881
0.455083,-0.03125,0.02539063,0.8232422,-0.040296483,-0.287995389,0.098756481
0.464455,-0.03173828,0.02368164,0.826416,-0.139533483,0.009713611,-0.023380919
0.473802,-0.03613281,0.02392578,0.822998,0.142909517,0.047881611,0.045321481
0.483147,-0.0300293,0.02661133,0.8195801,-0.032662483,0.116584611,-0.061548819
0.498827,-0.02758789,0.02563477,0.8220215,-0.101365483,0.177653011,0.030054281
0.508332,-0.02734375,0.01904297,0.8149414,-0.086097483,0.139484611,-0.053915219
0.517662,-0.03564453,0.02587891,0.8173828,-0.040296483,0.353225511,0.098756481
0.526968,-0.02929688,0.01953125,0.8225098,-0.116632483,-0.089522389,-0.023380919
0.536301,-0.02929688,0.02172852,0.8171387,0.074207517,0.139484611,-0.015747319
0.545594,-0.02490234,0.02685547,0.8205566,0.036039517,-0.089522389,0.091122981
0.554884,-0.02929688,0.0222168,0.8200684,-0.025029483,-0.127690389,0.014787081
0.5642529,-0.03051758,0.02514648,0.8117676,-0.086097483,-0.074255389,0.068222181
0.573512,-0.03100586,0.02612305,0.8239746,-0.055563483,0.200553711,-0.114983919
0.582907,-0.03735352,0.02636719,0.8322754,0.074207517,0.017347611,0.098756481
0.602621,-0.03173828,0.02709961,0.8173828,0.020772517,-0.051354389,-0.038648019
0.612097,-0.02587891,0.02636719,0.8217773,0.058940517,0.124217611,-0.076815919
0.621469,-0.02661133,0.02319336,0.8222656,0.081841517,-0.089522389,-0.031014419
0.630816,-0.03588867,0.02636719,0.8276367,-0.009762483,0.177653011,0.144558081
0.640168,-0.03369141,0.03027344,0.8156738,0.013138517,0.093683611,-0.122617519
0.649558,-0.03173828,0.02661133,0.8193359,0.104741517,-0.043721389,-0.267655719
0.658882,-0.03173828,0.0234375,0.8200684,0.058940517,0.063149611,-0.107350319
0.668224,-0.0324707,0.02026367,0.8225098,-0.063197483,0.086049611,0.106390081
0.677494,-0.03564453,0.02612305,0.824707,0.051306517,-0.249828389,0.228527481
0.686822,-0.02270508,0.02880859,0.8186035,0.066573517,0.063149611,-0.168419019
0.706692,-0.02954102,0.0246582,0.8181152,-0.025029483,-0.142957389,-0.076815919
0.716251,-0.0324707,0.02539063,0.807373,-0.139533483,-0.043721389,-0.000480119
0.725551,-0.03393555,0.02685547,0.8149414,0.097108517,0.024981611,-0.000480119
0.734844,-0.03613281,0.02050781,0.8129883,-0.002128483,0.116584611,0.030054281
0.744173,-0.03076172,0.02441406,0.8312988,-0.223502483,0.078416611,0.052954981
0.753458,-0.03222656,0.02319336,0.8210449,0.135276517,0.124217611,-0.053915219
0.76282,-0.03442383,0.01855469,0.8146973,-0.009762483,0.101316611,-0.260022019
0.772118,-0.03125,0.02636719,0.8244629,0.081841517,0.009713611,-0.046281619
0.781424,-0.03417969,0.0246582,0.8239746,-0.108998483,-0.135324389,0.030054281
0.790776,-0.03076172,0.01928711,0.815918,-0.032662483,0.162385811,0.037687881
0.8108,-0.03393555,0.02612305,0.815918,0.036039517,-0.097156389,0.083489381
0.8203529,-0.03320313,0.02319336,0.8181152,-0.101365483,0.009713611,0.014787081
0.8297111,-0.03466797,0.02587891,0.8132324,0.013138517,0.040248611,0.091122981
0.839039,-0.03198242,0.02490234,0.8122559,0.089474517,0.055515611,0.060588581
0.8483521,-0.04052734,0.02294922,0.8110352,0.058940517,-0.074255389,0.159825281
0.857674,-0.0324707,0.02148438,0.8249512,-0.101365483,-0.066621389,-0.176052619
0.867014,-0.02807617,0.02490234,0.8217773,0.081841517,-0.081889389,0.114023681
0.876346,-0.02880859,0.01733398,0.8183594,-0.002128483,-0.051354389,-0.031014419
0.885665,-0.03149414,0.02099609,0.8308105,-0.093731483,0.040248611,-0.046281619
0.894991,-0.03125,0.02392578,0.8198242,0.249780017,0.086049611,0.022420681
0.91524,-0.03442383,0.02490234,0.8183594,0.058940517,-0.036087389,0.075855781
0.924802,-0.0300293,0.02490234,0.8132324,-0.063197483,-0.158225389,-0.038648019
0.9340919,-0.03344727,0.02050781,0.809082,-0.200601483,0.002080611,0.037687881
0.943435,-0.0300293,0.02099609,0.8171387,-0.131899483,-0.089522389,0.228527481
0.952806,-0.03173828,0.02734375,0.8095703,-0.154800483,-0.058988389,0.037687881
0.962121,-0.03613281,0.0234375,0.8137207,-0.093731483,-0.036087389,-0.046281619
0.971397,-0.03027344,0.02294922,0.8242188,0.043673517,0.108950611,-0.053915219
0.980749,-0.0300293,0.02661133,0.8193359,-0.124265483,-0.005553389,-0.107350319
0.990046,-0.03686523,0.02294922,0.8271484,0.028405517,0.047881611,0.075855781
0.99943,-0.0324707,0.02294922,0.8144531,0.150543517,-0.013186389,0.022420681
1.019932,-0.02685547,0.02661133,0.8085938,-0.070830483,0.070782611,-0.008113719
1.029477,-0.03491211,0.02416992,0.8222656,-0.246403483,0.108950611,-0.076815919
1.038892,-0.02856445,0.02514648,0.8286133,0.043673517,0.047881611,-0.031014419
1.048259,-0.0300293,0.02197266,0.8222656,0.005505517,0.292156811,-0.084449519
1.057526,-0.03051758,0.02734375,0.8190918,-0.025029483,0.024981611,-0.015747319
1.066877,-0.03686523,0.01977539,0.8190918,0.089474517,0.009713611,0.068222181
1.076266,-0.02880859,0.02514648,0.817627,0.036039517,0.139484611,0.068222181
1.085563,-0.02978516,0.02612305,0.8161621,-0.254036483,-0.127690389,0.152191681
1.094883,-0.03027344,0.02197266,0.8222656,0.135276517,-0.196392389,-0.069182419
1.104248,-0.03173828,0.02124023,0.8220215,0.028405517,0.154752211,0.052954981
1.124804,-0.03051758,0.02075195,0.824707,-0.162433483,-0.051354389,0.060588581
1.134398,-0.02807617,0.02197266,0.8188477,0.005505517,-0.020820389,-0.061548819
1.143764,-0.03222656,0.02246094,0.8122559,0.257413617,-0.081889389,-0.046281619
1.153109,-0.02636719,0.02758789,0.8237305,0.028405517,0.147118611,0.007153481
1.162504,-0.02929688,0.02490234,0.8251953,-0.108998483,-0.120057389,0.014787081
1.171817,-0.02539063,0.02441406,0.8227539,-0.231136483,0.009713611,0.098756481
1.181186,-0.0324707,0.01855469,0.8222656,-0.063197483,-0.028454389,0.091122981
1.190532,-0.02929688,0.02514648,0.8132324,-0.070830483,0.032614611,-0.130251019
1.199895,-0.02832031,0.02441406,0.8181152,-0.002128483,0.002080611,-0.244754919
1.209246,-0.02905273,0.02612305,0.8168945,-0.170067483,-0.005553389,-0.046281619
1.229992,-0.0300293,0.03320313,0.8117676,0.081841517,0.147118611,-0.000480119
1.239482,-0.03149414,0.02075195,0.8205566,0.226879217,0.162385811,0.014787081
1.248835,-0.02807617,0.0222168,0.8208008,0.066573517,-0.127690389,0.190359581
1.258116,-0.02783203,0.0222168,0.8093262,0.058940517,-0.196392389,-0.084449519
1.267418,-0.03198242,0.01513672,0.8237305,-0.070830483,-0.165858389,0.014787081
1.2768,-0.02758789,0.02636719,0.8132324,0.066573517,0.032614611,0.007153481
1.286195,-0.02758789,0.02539063,0.8183594,0.058940517,0.086049611,-0.176052619
1.295507,-0.02954102,0.0222168,0.8198242,-0.002128483,0.124217611,-0.015747319
1.304836,-0.0300293,0.02490234,0.8095703,0.013138517,-0.043721389,0.144558081
1.314226,-0.03393555,0.02368164,0.8178711,0.013138517,0.024981611,-0.008113719
1.335222,-0.03320313,0.02246094,0.8220215,0.097108517,0.238721711,0.129290881
1.344837,-0.03466797,0.02978516,0.8161621,0.020772517,-0.158225389,0.098756481
1.354225,-0.03442383,0.02709961,0.8132324,0.028405517,-0.036087389,-0.038648019
1.363538,-0.03613281,0.02197266,0.8115234,0.120008517,0.009713611,-0.023380919
1.372897,-0.03076172,0.02270508,0.817627,0.005505517,0.024981611,-0.168419019
1.382253,-0.02661133,0.02392578,0.822998,-0.078464483,0.108950611,-0.092083219
1.391509,-0.03173828,0.02441406,0.8095703,0.112375517,0.131851611,-0.053915219
1.400832,-0.03344727,0.01782227,0.8234863,0.013138517,0.055515611,-0.008113719
1.410184,-0.0300293,0.02441406,0.8066406,-0.131899483,0.024981611,0.106390081
1.419499,-0.03662109,0.02368164,0.8190918,-0.070830483,0.261622411,0.205626781
1.440696,-0.03515625,0.02587891,0.8146973,-0.032662483,0.055515611,0.037687881
1.450255,-0.03540039,0.02612305,0.831543,-0.147166483,0.162385811,-0.229487719
1.459555,-0.03588867,0.02246094,0.8181152,0.112375517,0.101316611,0.037687881
1.468994,-0.02758789,0.02514648,0.8120117,-0.124265483,-0.036087389,0.030054281
1.478349,-0.02929688,0.02172852,0.8271484,-0.032662483,-0.036087389,-0.031014419
1.487653,-0.02880859,0.02587891,0.8166504,-0.101365483,-0.005553389,0.136924481
1.496964,-0.0300293,0.01953125,0.8215332,0.058940517,0.185286611,-0.099716719
1.50629,-0.03295898,0.01977539,0.8190918,-0.055563483,-0.120057389,0.129290881
1.515539,-0.02807617,0.02319336,0.8217773,0.066573517,0.231088111,-0.099716719
1.524893,-0.03125,0.02319336,0.8103027,0.051306517,0.147118611,-0.153151919
1.546246,-0.02685547,0.02539063,0.8120117,0.249780017,-0.058988389,0.075855781
1.555816,-0.03369141,0.03051758,0.8181152,0.005505517,-0.135324389,-0.008113719
1.565194,-0.03393555,0.0234375,0.8203125,0.074207517,-0.097156389,0.052954981
1.57457,-0.03540039,0.02026367,0.8251953,-0.101365483,0.093683611,0.068222181
1.583943,-0.02905273,0.02197266,0.8217773,0.142909517,-0.089522389,0.075855781
1.593266,-0.03417969,0.02661133,0.8225098,-0.032662483,0.192920111,-0.137884719
1.602603,-0.02880859,0.02368164,0.8120117,0.097108517,0.024981611,0.014787081
1.611924,-0.03540039,0.02270508,0.822998,-0.086097483,0.002080611,0.060588581
1.62128,-0.03149414,0.02563477,0.8137207,-0.070830483,0.093683611,0.175092381
1.630609,-0.03051758,0.03198242,0.8166504,-0.063197483,0.040248611,-0.252388519
1.652103,-0.03100586,0.02392578,0.8239746,0.074207517,0.108950611,0.037687881
1.661593,-0.02978516,0.02392578,0.8220215,0.203978517,-0.043721389,0.007153481
1.671025,-0.03540039,0.02172852,0.8251953,0.226879217,-0.036087389,0.129290881
1.680406,-0.03173828,0.02075195,0.8190918,-0.055563483,-0.051354389,0.052954981
1.689728,-0.03515625,0.02124023,0.8161621,0.219245617,0.047881611,0.014787081
1.69907,-0.03051758,0.02978516,0.8208008,-0.025029483,0.070782611,-0.031014419
1.708362,-0.03198242,0.02563477,0.8137207,-0.093731483,-0.112423389,0.106390081
1.717682,-0.03515625,0.02758789,0.8181152,-0.070830483,-0.051354389,-0.130251019
1.727002,-0.03076172,0.02563477,0.8161621,-0.017395483,0.208187311,-0.031014419
1.736333,-0.0390625,0.02172852,0.8149414,-0.002128483,-0.051354389,-0.053915219
1.757973,-0.02514648,0.02612305,0.8251953,-0.025029483,-0.005553389,-0.023380919
1.767574,-0.03100586,0.02319336,0.8129883,-0.154800483,-0.135324389,-0.015747319
1.777005,-0.02587891,0.02050781,0.8183594,-0.070830483,-0.165858389,0.152191681
1.786419,-0.0300293,0.02661133,0.8200684,0.112375517,-0.142957389,-0.145518219
1.795745,-0.03100586,0.02490234,0.8129883,0.142909517,0.055515611,-0.130251019
1.805063,-0.03613281,0.02563477,0.8193359,-0.063197483,-0.043721389,0.091122981
1.814376,-0.03149414,0.02954102,0.8188477,0.188711317,0.002080611,-0.107350319
1.823678,-0.03979492,0.02929688,0.8217773,-0.078464483,-0.028454389,0.114023681
1.832999,-0.02929688,0.02636719,0.8205566,0.074207517,0.101316611,0.091122981
1.84237,-0.02709961,0.02416992,0.8212891,-0.002128483,0.086049611,0.136924481
1.864216,-0.03125,0.02075195,0.8239746,-0.086097483,-0.089522389,0.007153481
1.873839,-0.02929688,0.02514648,0.8261719,0.066573517,0.108950611,0.022420681
1.883294,-0.02832031,0.02832031,0.8181152,0.135276517,0.147118611,0.060588581
1.892751,-0.02758789,0.02416992,0.822998,0.150543517,0.002080611,0.007153481
1.90203,-0.02954102,0.02807617,0.8164063,-0.170067483,0.116584611,-0.046281619
1.911346,-0.0300293,0.02294922,0.8188477,-0.093731483,-0.097156389,0.152191681
1.920718,-0.03051758,0.02416992,0.8210449,0.188711317,-0.020820389,0.243794681
1.930035,-0.02856445,0.01904297,0.8171387,0.120008517,-0.005553389,-0.114983919
1.939316,-0.0378418,0.02075195,0.8129883,-0.017395483,0.055515611,-0.015747319
1.948648,-0.02783203,0.02197266,0.8193359,0.036039517,0.002080611,-0.160785419
1.970604,-0.03466797,0.02416992,0.8225098,0.112375517,-0.173492389,0.068222181
1.980119,-0.03344727,0.02172852,0.8139648,-0.093731483,-0.142957389,-0.008113719
1.989524,-0.0324707,0.02758789,0.8173828,0.127642517,0.124217611,-0.069182419
1.99891,-0.02905273,0.02514648,0.8254395,0.142909517,0.040248611,0.022420681
2.008277,-0.03125,0.0324707,0.8149414,0.150543517,0.070782611,0.060588581
2.017543,-0.0378418,0.02197266,0.8117676,0.158176517,0.055515611,-0.046281619
2.02687,-0.02783203,0.02099609,0.8164063,-0.086097483,-0.188759389,0.022420681
2.036187,-0.03149414,0.02563477,0.8181152,-0.139533483,0.047881611,0.030054281
2.045463,-0.02929688,0.02441406,0.8178711,-0.009762483,0.070782611,0.030054281
2.054819,-0.03100586,0.02587891,0.8146973,0.142909517,0.002080611,-0.092083219
2.077015,-0.03564453,0.02026367,0.8210449,0.020772517,-0.020820389,0.014787081
2.08664,-0.03515625,0.0222168,0.8149414,-0.093731483,-0.058988389,-0.114983919
2.096068,-0.03125,0.02075195,0.8105469,0.043673517,0.017347611,0.091122981
2.105412,-0.02880859,0.02197266,0.8132324,-0.009762483,-0.249828389,-0.107350319
2.114744,-0.03027344,0.0234375,0.8132324,0.127642517,0.154752211,-0.008113719
2.124076,-0.03222656,0.02514648,0.8193359,0.150543517,0.139484611,0.007153481
2.133406,-0.03173828,0.02246094,0.817627,-0.040296483,0.040248611,-0.114983919
2.142715,-0.03564453,0.02709961,0.8217773,0.058940517,0.070782611,0.037687881
2.152041,-0.02905273,0.02099609,0.8205566,0.081841517,0.162385811,-0.046281619
2.161403,-0.03540039,0.02148438,0.8178711,0.043673517,0.093683611,0.114023681
2.183773,-0.03710938,0.02392578,0.8254395,0.013138517,-0.089522389,-0.099716719
2.193423,-0.03857422,0.0234375,0.8161621,-0.047929483,0.040248611,-0.114983919
2.202901,-0.03125,0.02319336,0.8149414,-0.101365483,0.147118611,-0.122617519
2.212286,-0.03759766,0.0222168,0.8188477,-0.147166483,-0.234560389,-0.114983919
2.221683,-0.03320313,0.03125,0.8120117,0.089474517,0.078416611,-0.069182419
2.231003,-0.03540039,0.02709961,0.8146973,-0.070830483,-0.158225389,-0.008113719
2.240336,-0.0300293,0.0222168,0.8183594,0.097108517,0.192920111,0.007153481
2.249661,-0.03393555,0.03027344,0.8161621,0.150543517,-0.219293389,-0.069182419
2.258991,-0.03515625,0.0234375,0.8161621,-0.017395483,0.040248611,0.014787081
2.268401,-0.03637695,0.02612305,0.8164063,0.058940517,-0.051354389,-0.015747319
2.290977,-0.03125,0.02880859,0.8198242,-0.162433483,-0.066621389,-0.130251019
2.30062,-0.02661133,0.0246582,0.8212891,0.303215017,-0.028454389,0.213260381
2.310064,-0.02441406,0.02612305,0.8354492,-0.040296483,-0.173492389,0.060588581
2.319385,-0.03198242,0.02319336,0.8222656,-0.108998483,0.063149611,-0.053915219
2.328762,-0.03295898,0.02709961,0.8146973,-0.108998483,-0.051354389,-0.053915219
2.338093,-0.02905273,0.02539063,0.8098145,-0.002128483,0.002080611,0.037687881
2.347408,-0.03662109,0.02709961,0.8269043,0.013138517,-0.097156389,-0.053915219
2.356753,-0.03295898,0.02856445,0.8139648,0.097108517,-0.089522389,-0.069182419
2.366059,-0.0324707,0.02172852,0.8259277,-0.063197483,0.002080611,0.121657281
2.375374,-0.03149414,0.02514648,0.8205566,-0.108998483,-0.165858389,-0.015747319
2.398145,-0.03125,0.02563477,0.8139648,-0.009762483,-0.005553389,-0.023380919
2.407782,-0.03491211,0.02563477,0.8168945,0.127642517,0.063149611,0.190359581
2.417261,-0.02832031,0.02709961,0.815918,-0.108998483,-0.013186389,-0.046281619
2.426615,-0.03051758,0.02563477,0.8232422,0.036039517,0.177653011,-0.031014419
2.435985,-0.0324707,0.02197266,0.8156738,-0.009762483,0.024981611,-0.160785419
2.4453,-0.03295898,0.02441406,0.8103027,-0.025029483,0.032614611,0.075855781
2.454657,-0.03393555,0.02392578,0.817627,0.051306517,0.017347611,-0.122617519
2.464002,-0.03662109,0.02587891,0.8190918,0.097108517,-0.150591389,-0.023380919
2.473339,-0.02954102,0.02539063,0.8215332,0.013138517,-0.005553389,0.152191681
2.482743,-0.03125,0.02441406,0.8244629,-0.025029483,-0.005553389,-0.114983919
2.505571,-0.03198242,0.02978516,0.8195801,-0.093731483,0.002080611,0.052954981
2.515187,-0.03125,0.02734375,0.8105469,-0.139533483,0.017347611,-0.038648019
2.524654,-0.03271484,0.02246094,0.8217773,0.135276517,0.078416611,-0.069182419
2.534029,-0.02783203,0.0222168,0.824707,0.028405517,-0.058988389,-0.061548819
2.543337,-0.03320313,0.02246094,0.8249512,-0.101365483,-0.150591389,0.114023681
2.552682,-0.03540039,0.0234375,0.822998,0.089474517,-0.074255389,-0.092083219
2.562034,-0.0378418,0.02270508,0.8203125,0.051306517,0.063149611,-0.176052619
2.571315,-0.03198242,0.01928711,0.809082,-0.070830483,0.009713611,-0.107350319
2.580652,-0.0246582,0.02587891,0.8120117,0.051306517,0.154752211,-0.031014419
2.590005,-0.03320313,0.02075195,0.8254395,-0.063197483,-0.226927389,0.159825281
2.613017,-0.03808594,0.02783203,0.8225098,-0.101365483,0.024981611,-0.069182419
2.622666,-0.02661133,0.02563477,0.814209,-0.002128483,0.063149611,0.083489381
2.632082,-0.03540039,0.02441406,0.8190918,-0.147166483,-0.005553389,-0.076815919
2.64142,-0.0300293,0.01782227,0.8137207,0.112375517,-0.036087389,-0.061548819
2.650739,-0.0324707,0.02319336,0.8173828,-0.124265483,-0.219293389,0.091122981
2.660023,-0.03393555,0.02319336,0.8232422,0.150543517,-0.219293389,-0.038648019
2.669323,-0.02416992,0.02734375,0.8161621,0.028405517,0.093683611,0.045321481
2.678754,-0.03564453,0.02270508,0.8220215,0.066573517,-0.226927389,0.014787081
2.688121,-0.04077148,0.01928711,0.8208008,-0.025029483,0.009713611,0.030054281
2.697393,-0.03540039,0.02368164,0.8112793,-0.101365483,-0.043721389,-0.114983919
2.720755,-0.03393555,0.02270508,0.8193359,-0.086097483,0.002080611,-0.000480119
2.730446,-0.03125,0.02514648,0.8156738,-0.101365483,-0.089522389,-0.183686219
2.739894,-0.03369141,0.02734375,0.8222656,0.013138517,-0.066621389,0.083489381
2.749228,-0.02978516,0.02514648,0.8161621,-0.017395483,0.353225511,0.030054281
2.758546,-0.02832031,0.02441406,0.8215332,0.234512817,0.208187311,0.167458781
2.767887,-0.03637695,0.03125,0.8251953,-0.047929483,-0.089522389,-0.061548819
2.777242,-0.0300293,0.03393555,0.8261719,0.150543517,0.101316611,0.167458781
2.786562,-0.03320313,0.02563477,0.817627,0.074207517,-0.127690389,-0.031014419
2.795847,-0.03027344,0.03149414,0.8186035,-0.055563483,-0.005553389,-0.099716719
2.805243,-0.03295898,0.02490234,0.8295898,0.051306517,0.154752211,-0.137884719
2.828728,-0.03710938,0.02319336,0.8166504,-0.177700483,0.147118611,0.075855781
2.838404,-0.03686523,0.02294922,0.8200684,0.066573517,0.047881611,0.121657281
2.847803,-0.03027344,0.02172852,0.8195801,-0.108998483,0.047881611,0.045321481
2.857166,-0.03027344,0.02050781,0.8186035,0.005505517,0.002080611,0.007153481
2.866519,-0.03442383,0.02441406,0.8220215,0.150543517,0.292156811,0.114023681
2.875803,-0.03271484,0.01586914,0.822998,0.005505517,0.231088111,0.091122981
2.885188,-0.03466797,0.02783203,0.8139648,-0.040296483,-0.249828389,0.037687881
2.894515,-0.02734375,0.02075195,0.8222656,0.036039517,0.009713611,0.091122981
2.903832,-0.03198242,0.02099609,0.8220215,0.219245617,-0.036087389,-0.023380919
2.913208,-0.0300293,0.0222168,0.8186035,0.036039517,-0.165858389,-0.038648019
2.936822,-0.0324707,0.02490234,0.8132324,-0.231136483,0.215820911,-0.130251019
2.946458,-0.03344727,0.02490234,0.8166504,-0.147166483,0.040248611,-0.000480119
2.955936,-0.03540039,0.02539063,0.8220215,0.013138517,0.032614611,-0.008113719
2.965286,-0.03173828,0.02392578,0.8178711,-0.116632483,0.231088111,0.075855781
2.974659,-0.02978516,0.02416992,0.8205566,-0.215868483,-0.104789389,0.045321481
2.983977,-0.02905273,0.02661133,0.8203125,0.058940517,0.154752211,0.098756481
2.993335,-0.03417969,0.02001953,0.8249512,0.104741517,0.070782611,0.098756481
3.002672,-0.02954102,0.02636719,0.8110352,-0.139533483,-0.150591389,-0.038648019
3.011986,-0.03198242,0.02246094,0.8154297,0.028405517,0.040248611,-0.076815919
3.021314,-0.03271484,0.02148438,0.814209,-0.040296483,-0.066621389,-0.084449519
3.045092,-0.03222656,0.02148438,0.814209,-0.093731483,-0.142957389,0.083489381
3.054847,-0.03173828,0.02612305,0.8161621,-0.055563483,-0.196392389,-0.145518219
3.064382,-0.03125,0.02270508,0.8203125,0.036039517,-0.066621389,0.022420681
3.073735,-0.03393555,0.02734375,0.8220215,-0.025029483,0.002080611,-0.061548819
3.08306,-0.03686523,0.02246094,0.8151855,-0.185334483,-0.058988389,-0.160785419
3.092411,-0.0300293,0.02050781,0.8129883,0.058940517,0.108950611,-0.046281619
3.101715,-0.03930664,0.02563477,0.8156738,-0.002128483,-0.104789389,0.144558081
3.111037,-0.03198242,0.02075195,0.8217773,-0.078464483,-0.234560389,-0.084449519
3.120377,-0.03027344,0.02490234,0.8222656,0.043673517,-0.150591389,0.274329081
3.129737,-0.02856445,0.02587891,0.8225098,-0.017395483,0.032614611,-0.168419019
3.153694,-0.03393555,0.02148438,0.8188477,-0.185334483,-0.074255389,0.098756481
3.163528,-0.03076172,0.02148438,0.8244629,-0.108998483,0.017347611,-0.061548819
3.172993,-0.03564453,0.02270508,0.8151855,0.013138517,0.070782611,-0.122617519
3.182404,-0.03051758,0.02148438,0.8171387,0.364283817,0.032614611,0.037687881
3.191753,-0.02832031,0.01757813,0.8149414,-0.025029483,-0.043721389,-0.084449519
3.201094,-0.02539063,0.02124023,0.8183594,-0.124265483,0.024981611,-0.130251019
3.210472,-0.03076172,0.02197266,0.8168945,-0.093731483,0.086049611,-0.061548819
3.219788,-0.03051758,0.02709961,0.8083496,0.097108517,0.055515611,-0.053915219
3.229063,-0.03222656,0.02514648,0.8239746,-0.078464483,0.192920111,-0.023380919
3.238447,-0.03662109,0.02929688,0.8149414,-0.131899483,-0.120057389,-0.031014419
3.262628,-0.03710938,0.02197266,0.8242188,0.051306517,0.086049611,-0.114983919
3.272345,-0.03442383,0.02246094,0.8183594,-0.093731483,0.108950611,-0.122617519
3.281789,-0.03417969,0.02148438,0.8195801,-0.002128483,-0.066621389,-0.130251019
3.291217,-0.02294922,0.02514648,0.8095703,0.203978517,-0.074255389,-0.038648019
3.300517,-0.03417969,0.01855469,0.809082,-0.055563483,-0.165858389,-0.130251019
3.309839,-0.0402832,0.02294922,0.8273926,-0.086097483,0.124217611,0.045321481
3.31926,-0.02905273,0.0222168,0.8054199,-0.116632483,0.093683611,-0.038648019
3.328537,-0.0324707,0.02416992,0.8071289,0.097108517,0.101316611,0.014787081
3.337879,-0.02978516,0.02612305,0.8186035,-0.116632483,0.116584611,0.182725981
3.347196,-0.03393555,0.01904297,0.8127441,-0.040296483,0.139484611,-0.038648019
3.371542,-0.03051758,0.02441406,0.8188477,-0.170067483,-0.043721389,-0.130251019
3.381167,-0.03735352,0.02783203,0.8129883,-0.101365483,-0.058988389,-0.031014419
3.390586,-0.03271484,0.0246582,0.8203125,-0.032662483,-0.127690389,-0.053915219
3.399992,-0.03149414,0.01879883,0.8120117,-0.017395483,-0.005553389,-0.092083219
3.409342,-0.02929688,0.02124023,0.8271484,-0.055563483,0.147118611,0.091122981
3.418728,-0.02880859,0.02246094,0.8195801,-0.070830483,-0.112423389,0.052954981
3.428072,-0.03686523,0.01879883,0.8244629,0.127642517,0.063149611,-0.076815919
3.437407,-0.03613281,0.0234375,0.8154297,0.043673517,0.093683611,-0.084449519
3.446767,-0.02832031,0.02172852,0.8249512,-0.154800483,-0.188759389,0.037687881
3.456095,-0.03466797,0.02050781,0.8154297,0.112375517,0.063149611,0.014787081
3.480636,-0.03515625,0.02490234,0.8188477,0.173444117,0.078416611,-0.008113719
3.490379,-0.03295898,0.02148438,0.814209,0.028405517,-0.058988389,0.098756481
3.499827,-0.03320313,0.02001953,0.8242188,-0.017395483,-0.112423389,0.045321481
3.509201,-0.03833008,0.02490234,0.8190918,0.028405517,0.337958311,-0.015747319
3.518527,-0.02758789,0.02368164,0.8171387,-0.093731483,-0.196392389,0.075855781
3.527896,-0.03198242,0.02270508,0.8215332,0.028405517,-0.028454389,-0.145518219
3.537277,-0.03466797,0.01953125,0.8056641,-0.108998483,-0.058988389,-0.031014419
3.546576,-0.02954102,0.02099609,0.8129883,-0.070830483,0.131851611,-0.114983919
3.555836,-0.02709961,0.02563477,0.822998,0.036039517,-0.097156389,0.060588581
3.565189,-0.03222656,0.02124023,0.8200684,0.203978517,-0.120057389,-0.000480119
3.589898,-0.03662109,0.02685547,0.8112793,0.127642517,0.032614611,0.030054281
3.599661,-0.03491211,0.02050781,0.8210449,0.013138517,-0.074255389,-0.046281619
3.609037,-0.03076172,0.0234375,0.8188477,0.173444117,-0.058988389,0.136924481
3.618448,-0.03320313,0.02563477,0.8203125,0.173444117,0.078416611,-0.015747319
3.627736,-0.02880859,0.02832031,0.8161621,-0.047929483,0.086049611,0.060588581
3.637087,-0.03173828,0.02246094,0.8186035,0.097108517,-0.028454389,0.014787081
3.646452,-0.02880859,0.02514648,0.8232422,-0.185334483,-0.112423389,0.228527481
3.655743,-0.03198242,0.02514648,0.8244629,-0.055563483,-0.081889389,-0.153151919
3.665036,-0.03491211,0.01660156,0.817627,0.104741517,0.032614611,-0.061548819
3.674389,-0.03320313,0.02636719,0.815918,-0.101365483,-0.089522389,0.091122981
3.699258,-0.03198242,0.02124023,0.8225098,0.013138517,-0.074255389,0.022420681
3.709038,-0.0378418,0.03027344,0.8225098,0.013138517,-0.097156389,-0.198953419
3.718499,-0.03710938,0.02734375,0.8100586,0.005505517,0.208187311,-0.023380919
3.727799,-0.03417969,0.02954102,0.8085938,0.081841517,0.063149611,-0.099716719
3.737158,-0.02978516,0.02490234,0.8156738,-0.078464483,0.047881611,-0.000480119
3.746468,-0.03076172,0.0234375,0.8203125,-0.154800483,0.131851611,0.114023681
3.755753,-0.02856445,0.02392578,0.814209,0.020772517,-0.158225389,0.091122981
3.765026,-0.03369141,0.02001953,0.8164063,-0.055563483,-0.211660389,-0.076815919
3.774364,-0.02978516,0.01733398,0.8178711,0.013138517,0.162385811,0.091122981
3.783686,-0.03320313,0.02270508,0.8168945,-0.002128483,0.002080611,0.014787081
3.808662,-0.03051758,0.02783203,0.8200684,0.272680817,0.040248611,0.075855781
3.818448,-0.03051758,0.02099609,0.8171387,0.112375517,0.147118611,0.182725981
3.827809,-0.03222656,0.02270508,0.817627,0.020772517,-0.120057389,0.144558081
3.837258,-0.03417969,0.02734375,0.8161621,-0.177700483,0.047881611,-0.008113719
3.846608,-0.02734375,0.02319336,0.8198242,-0.002128483,-0.272728389,-0.107350319
3.855953,-0.03686523,0.02685547,0.8193359,-0.131899483,-0.074255389,0.213260381
3.865254,-0.0300293,0.02441406,0.8212891,0.028405517,-0.112423389,-0.069182419
3.874593,-0.03466797,0.01977539,0.8190918,0.081841517,-0.028454389,0.007153481
3.883944,-0.0246582,0.02636719,0.8212891,-0.055563483,0.139484611,-0.069182419
3.893272,-0.02807617,0.02636719,0.814209,0.127642517,0.147118611,0.121657281
3.918439,-0.03222656,0.02270508,0.8139648,0.181077717,-0.058988389,-0.061548819
3.928136,-0.03173828,0.02392578,0.8190918,0.219245617,-0.081889389,-0.000480119
3.937506,-0.03344727,0.02758789,0.8215332,0.066573517,-0.043721389,-0.229487719
3.946906,-0.02978516,0.0300293,0.8208008,0.089474517,-0.028454389,-0.015747319
3.956297,-0.03222656,0.02636719,0.8200684,-0.177700483,0.055515611,0.037687881
3.965586,-0.0324707,0.02270508,0.8125,-0.009762483,-0.135324389,0.083489381
3.974941,-0.02978516,0.02954102,0.8098145,-0.154800483,-0.058988389,-0.206586919
3.984306,-0.03198242,0.02246094,0.8232422,-0.101365483,-0.303263389,-0.191319819
3.9936,-0.03393555,0.02294922,0.822998,0.051306517,0.055515611,0.075855781
4.002905,-0.03344727,0.02416992,0.826416,0.104741517,0.017347611,0.022420681
4.028259,-0.02929688,0.02075195,0.8139648,-0.269303483,0.063149611,0.121657281
4.038065,-0.03320313,0.01269531,0.8291016,-0.108998483,0.086049611,0.197993181
4.047473,-0.03735352,0.01879883,0.8151855,-0.017395483,0.238721711,-0.031014419
4.056862,-0.03173828,0.02392578,0.8166504,-0.002128483,-0.089522389,0.037687881
4.066215,-0.03295898,0.0222168,0.8203125,0.142909517,-0.089522389,-0.023380919
4.075516,-0.02978516,0.02636719,0.8151855,0.058940517,-0.005553389,-0.076815919
4.084886,-0.03881836,0.02050781,0.8198242,-0.208235483,-0.120057389,0.083489381
4.094246,-0.02709961,0.02124023,0.8173828,-0.040296483,-0.020820389,-0.130251019
4.103535,-0.03027344,0.01831055,0.8156738,-0.047929483,-0.081889389,-0.008113719
4.112893,-0.03125,0.02661133,0.822998,0.165810517,0.101316611,0.007153481
4.138469,-0.02734375,0.01757813,0.8217773,-0.025029483,0.177653011,-0.130251019
4.148335,-0.03515625,0.02661133,0.8171387,-0.032662483,-0.089522389,0.007153481
4.157749,-0.0300293,0.02441406,0.8210449,-0.185334483,0.032614611,0.037687881
4.167103,-0.02978516,0.03295898,0.8171387,-0.063197483,0.086049611,0.129290881
4.176442,-0.03515625,0.02807617,0.8137207,-0.139533483,0.032614611,-0.023380919
4.185772,-0.03076172,0.02441406,0.8161621,-0.009762483,0.017347611,0.083489381
4.195046,-0.03173828,0.0234375,0.8239746,0.066573517,0.154752211,0.075855781
4.204454,-0.02661133,0.01977539,0.8127441,0.081841517,0.032614611,0.190359581
4.213791,-0.0300293,0.02563477,0.8249512,0.066573517,0.086049611,0.068222181
4.223089,-0.03125,0.02001953,0.8112793,0.066573517,0.002080611,-0.145518219
4.248854,-0.0378418,0.02954102,0.8237305,-0.086097483,0.024981611,0.251428281
4.258644,-0.03369141,0.02514648,0.814209,-0.002128483,0.116584611,-0.114983919
4.268031,-0.03173828,0.02539063,0.8200684,-0.101365483,0.139484611,-0.008113719
4.277372,-0.02807617,0.0246582,0.8269043,-0.124265483,0.070782611,-0.038648019
4.286752,-0.0300293,0.02514648,0.8237305,0.036039517,-0.036087389,0.022420681
4.296061,-0.03222656,0.02587891,0.8259277,-0.032662483,-0.104789389,0.144558081
4.305392,-0.03515625,0.0222168,0.814209,-0.017395483,0.086049611,0.159825281
4.314756,-0.02539063,0.02368164,0.8134766,0.058940517,0.055515611,0.152191681
4.324082,-0.0300293,0.02172852,0.8222656,0.104741517,0.002080611,-0.107350319
4.333399,-0.03271484,0.02929688,0.8149414,0.020772517,-0.013186389,0.068222181
4.359284,-0.02587891,0.02929688,0.8195801,0.020772517,0.070782611,-0.076815919
4.369127,-0.0378418,0.0234375,0.8220215,-0.078464483,-0.165858389,0.075855781
4.378587,-0.03515625,0.02319336,0.8203125,-0.147166483,-0.173492389,0.136924481
4.38795,-0.03027344,0.02294922,0.8166504,-0.154800483,-0.020820389,-0.122617519
4.397255,-0.03881836,0.02441406,0.8178711,0.104741517,-0.074255389,-0.008113719
4.406585,-0.03417969,0.02392578,0.8139648,-0.040296483,0.124217611,-0.260022019
4.415885,-0.02856445,0.0234375,0.8186035,0.203978517,-0.295629389,0.106390081
4.425271,-0.03295898,0.02685547,0.8205566,-0.025029483,0.131851611,0.045321481
4.434567,-0.03442383,0.0234375,0.8239746,-0.131899483,0.093683611,0.220893881
4.443877,-0.03100586,0.02661133,0.814209,-0.101365483,0.002080611,0.121657281
4.469968,-0.02758789,0.02587891,0.8183594,0.051306517,0.124217611,0.068222181
4.479763,-0.02905273,0.02539063,0.8217773,-0.223502483,-0.028454389,-0.031014419
4.489217,-0.02563477,0.02246094,0.8186035,-0.002128483,0.078416611,-0.053915219
4.498544,-0.03125,0.02905273,0.8203125,0.196344917,-0.036087389,-0.053915219
4.507912,-0.02856445,0.02441406,0.822998,0.005505517,0.101316611,-0.214220519
4.51724,-0.03125,0.0234375,0.8154297,0.013138517,0.040248611,-0.046281619
4.526568,-0.03100586,0.02441406,0.8273926,-0.170067483,-0.097156389,0.129290881
4.535828,-0.03369141,0.01733398,0.8156738,-0.154800483,-0.020820389,0.144558081
4.545193,-0.02929688,0.02197266,0.8190918,0.127642517,0.078416611,-0.000480119
4.554543,-0.02661133,0.02612305,0.8129883,0.013138517,0.162385811,-0.061548819
4.580774,-0.03515625,0.02734375,0.8139648,-0.147166483,-0.196392389,-0.015747319
4.590651,-0.03100586,0.02636719,0.8166504,-0.108998483,-0.013186389,-0.008113719
4.600075,-0.02905273,0.02661133,0.8168945,-0.002128483,-0.028454389,0.022420681
4.609411,-0.03613281,0.0300293,0.8066406,-0.002128483,-0.112423389,-0.099716719
4.618764,-0.03686523,0.02978516,0.8198242,0.127642517,-0.089522389,-0.000480119
4.62811,-0.02929688,0.02685547,0.8132324,0.013138517,0.223454511,0.037687881
4.637427,-0.03198242,0.01928711,0.8212891,-0.063197483,0.154752211,-0.053915219
4.646806,-0.03027344,0.02734375,0.8256836,-0.124265483,-0.020820389,0.129290881
4.656087,-0.03735352,0.02563477,0.8085938,-0.078464483,-0.188759389,-0.107350319
4.665404,-0.0324707,0.02539063,0.8171387,0.013138517,-0.272728389,0.098756481
4.691844,-0.03222656,0.02661133,0.8151855,0.104741517,-0.150591389,-0.046281619
4.701629,-0.03613281,0.02636719,0.8132324,-0.025029483,-0.272728389,0.052954981
4.711066,-0.02832031,0.02490234,0.8198242,0.142909517,0.009713611,-0.038648019
4.720456,-0.03051758,0.02246094,0.8183594,-0.009762483,0.002080611,0.083489381
4.729774,-0.03686523,0.02319336,0.8171387,0.074207517,-0.234560389,-0.008113719
4.739043,-0.03344727,0.02099609,0.8146973,0.188711317,0.154752211,0.022420681
4.748372,-0.03344727,0.02978516,0.8173828,0.036039517,-0.181125389,-0.092083219
4.757678,-0.0324707,0.02832031,0.8249512,0.089474517,0.024981611,0.144558081
4.766994,-0.02929688,0.02685547,0.8156738,0.051306517,0.009713611,-0.122617519
4.776327,-0.03295898,0.02392578,0.8188477,0.234512817,-0.089522389,0.129290881
4.802883,-0.02832031,0.02832031,0.8178711,0.104741517,-0.135324389,-0.038648019
4.812738,-0.02856445,0.0234375,0.815918,0.028405517,0.024981611,0.144558081
4.822125,-0.03417969,0.02416992,0.8173828,0.120008517,0.108950611,0.091122981
4.83148,-0.03393555,0.02539063,0.8139648,0.036039517,-0.196392389,0.060588581
4.84082,-0.03076172,0.01953125,0.8200684,-0.116632483,-0.043721389,0.037687881
4.850171,-0.03369141,0.02294922,0.8217773,-0.124265483,-0.204026389,-0.168419019
4.859504,-0.03173828,0.03027344,0.8251953,-0.025029483,-0.204026389,-0.000480119
4.868826,-0.03295898,0.02197266,0.8171387,-0.063197483,-0.051354389,-0.053915219
4.878174,-0.02856445,0.02612305,0.8151855,-0.040296483,0.078416611,-0.053915219
4.88748,-0.03051758,0.02270508,0.8195801,0.120008517,-0.043721389,0.022420681
4.914235,-0.02734375,0.0234375,0.8166504,0.097108517,-0.036087389,0.121657281
4.924128,-0.03857422,0.02856445,0.8249512,0.028405517,-0.013186389,-0.084449519
4.933552,-0.03051758,0.02050781,0.8149414,0.020772517,-0.028454389,-0.023380919
4.942885,-0.0300293,0.02197266,0.8276367,0.074207517,-0.051354389,-0.046281619
4.95224,-0.03295898,0.02709961,0.8164063,-0.055563483,0.009713611,-0.046281619
4.96151,-0.02856445,0.02001953,0.8266602,0.020772517,-0.112423389,-0.107350319
4.970827,-0.03027344,0.02001953,0.8193359,-0.047929483,-0.089522389,-0.198953419
4.980178,-0.03442383,0.02612305,0.8198242,-0.208235483,0.070782611,0.167458781
4.989524,-0.03735352,0.02563477,0.8208008,0.089474517,-0.020820389,0.228527481
4.998959,-0.03466797,0.01953125,0.8127441,0.120008517,0.086049611,-0.137884719
5.025501,-0.03466797,0.0234375,0.824707,-0.078464483,-0.066621389,-0.038648019
5.036152,-0.02978516,0.02246094,0.8256836,0.043673517,-0.081889389,-0.084449519
5.046236,-0.02954102,0.0246582,0.815918,-0.002128483,0.063149611,0.121657281
5.056207,-0.03710938,0.01806641,0.817627,-0.124265483,-0.013186389,0.014787081
5.066132,-0.02441406,0.02758789,0.8261719,-0.047929483,0.147118611,0.106390081
5.07606,-0.0324707,0.02172852,0.8190918,-0.017395483,0.047881611,0.159825281
5.086016,-0.02929688,0.02514648,0.8200684,-0.009762483,0.070782611,0.030054281
